participant_id,trial_index,distractor_type,target_lag,target_orientation,distractor_position,correct,rt,button_pressed,phase
01,329,neu,8,right,4,true,877.8000000002794,3,test
01,348,neu,2,right,4,true,802.2000000001863,4,test
01,367,neg,2,left,4,false,1145.9999999990687,5,test
01,405,bas,8,left,4,true,1207.6000000000931,1,test
01,424,bas,8,left,6,true,852.9999999990687,0,test
01,443,bas,8,left,4,true,725.2000000011176,0,test
01,462,neu,8,right,4,false,886.8999999994412,2,test
01,500,bas,2,left,6,true,1179.2000000001863,1,test
01,519,bas,2,right,6,true,752.6999999987893,3,test
01,538,neg,2,left,6,true,966.5000000004657,1,test
01,557,neg,2,left,6,false,466.09999999962747,4,test
01,576,neg,2,right,4,true,683.6999999997206,3,test
01,595,neu,2,left,4,true,692.9999999990687,1,test
01,614,bas,8,right,4,true,499.4000000008382,4,test
01,633,neu,8,left,4,true,668.9000000008382,1,test
01,652,neg,2,left,4,true,747.7999999988824,1,test
01,671,neu,8,right,4,true,469.7999999988824,4,test
01,690,neg,8,left,6,true,671.0999999996275,1,test
01,709,neg,8,right,4,true,1940.1000000000931,3,test
01,747,bas,8,right,4,true,662.8000000002794,3,test
01,766,bas,2,left,6,true,654.499999998603,0,test
01,785,bas,2,right,6,true,432.5000000009313,4,test
01,804,neu,8,left,6,true,458.80000000074506,1,test
01,823,neg,2,right,6,false,713.2000000001863,5,test
01,842,bas,2,left,6,true,723.6000000014901,1,test
01,861,bas,2,right,6,true,539.2000000011176,3,test
01,880,bas,2,right,4,false,646.7999999988824,5,test
01,918,neu,2,left,4,true,497.90000000037253,0,test
01,937,bas,2,right,4,true,442.39999999990687,4,test
01,956,neg,8,left,6,true,453.70000000018626,1,test
01,994,bas,2,left,4,true,532.6999999997206,1,test
01,1013,bas,8,right,6,true,552.0000000018626,4,test
01,1032,bas,8,left,4,true,484.6999999987893,1,test
01,1051,neg,8,left,4,true,442.9999999990687,1,test
01,1070,neg,8,right,6,true,464.9000000008382,3,test
01,1089,neu,2,left,6,true,700.6000000005588,0,test
01,1108,neu,2,right,4,true,406.5000000009313,4,test
01,1127,bas,8,left,6,true,380.1999999997206,1,test
01,1146,neg,2,right,4,false,627.8000000002794,2,test
01,1165,bas,2,left,4,true,393.5999999991618,1,test
01,1184,neu,2,right,6,true,1101.8000000002794,4,test
01,1203,neg,2,right,4,true,781.0000000009313,4,test
01,1241,neg,8,right,6,true,909.2999999993481,3,test
01,1260,bas,8,right,6,true,961.1999999997206,4,test
01,1279,neu,8,left,6,true,638.3000000007451,0,test
01,1298,bas,2,right,4,true,1638.4000000017695,4,test
01,1317,neu,8,left,4,true,831.7000000006519,0,test
01,1336,neg,2,right,4,true,375.6999999987893,4,test
01,1355,neu,2,right,4,true,384.79999999981374,4,test
01,1374,neg,8,left,4,true,504.80000000074506,1,test
01,1393,neg,8,right,4,true,585.1000000005588,3,test
01,1412,bas,8,left,4,true,441.89999999990687,1,test
01,1431,neg,2,right,6,true,739.4000000003725,3,test
01,1450,neu,2,right,4,true,432.3999999994412,4,test
01,1469,neu,2,left,4,true,649.9000000003725,1,test
01,1488,bas,8,right,4,true,410.7000000006519,4,test
01,1507,neu,8,right,6,true,437.39999999897555,4,test
01,1526,bas,8,left,6,true,443.2999999988824,0,test
01,1564,neu,2,right,6,true,743.4000000013039,3,test
01,1583,bas,8,left,6,true,628.1000000000931,0,test
01,1602,neu,8,left,4,true,477.29999999841675,1,test
01,1621,neu,2,left,4,true,526.3000000012107,0,test
01,1640,neu,2,left,6,true,438.2000000006519,1,test
01,1659,neu,8,right,6,true,447.8999999994412,3,test
01,1678,neg,8,right,4,true,960.3999999999069,3,test
01,1697,bas,2,left,6,true,603.6000000000931,0,test
01,1716,neu,2,right,6,true,934.6000000005588,4,test
01,1735,bas,2,left,4,true,494.3999999994412,1,test
01,1754,neg,2,right,6,false,898.1999999997206,2,test
01,1773,neg,8,right,6,true,433.6999999997206,4,test
01,1792,bas,8,left,6,true,471.3999999985099,1,test
01,1811,neg,8,left,6,true,609.7000000006519,0,test
01,1830,neg,2,left,6,true,442.1000000005588,1,test
01,1849,neg,8,right,6,true,1312.6000000010245,4,test
01,1868,bas,8,right,6,true,397.39999999990687,3,test
01,1887,neg,8,left,6,true,865.2999999993481,0,test
01,1906,bas,2,left,4,true,1030.3999999994412,0,test
01,1925,bas,8,right,6,true,460.80000000074506,4,test
01,1944,neg,8,left,6,true,389.6999999997206,1,test
01,1963,bas,8,right,6,false,550.500000001397,5,test
01,1982,neg,8,right,4,true,411.00000000046566,4,test
01,2001,neg,8,right,4,true,949.3000000002794,3,test
01,2039,bas,8,left,4,true,734.0999999996275,0,test
01,2058,neu,8,left,4,true,400.5,0,test
01,2077,neu,8,right,6,true,451.0000000009313,3,test
01,2096,bas,2,left,6,true,649.9000000003725,1,test
01,2115,neg,2,right,6,false,1359.0999999996275,5,test
01,2134,neu,8,left,6,true,638.3999999999069,0,test
01,2153,bas,2,right,6,true,707.499999998603,3,test
01,2172,bas,2,right,4,true,1064.8000000002794,4,test
01,2210,neu,2,right,4,true,795.7999999998137,4,test
01,2229,neu,8,left,6,true,456.2000000006519,1,test
01,2248,neu,2,left,4,true,521.0000000004657,1,test
01,2267,neg,8,left,4,true,437,1,test
01,2286,neu,2,right,6,true,441.10000000009313,3,test
01,2305,neg,2,right,6,false,718.5000000009313,5,test
01,2324,neg,2,left,6,true,375.3000000016764,1,test
01,2343,neg,2,left,4,true,435.99999999953434,0,test
01,2362,bas,8,right,4,true,440.90000000130385,4,test
01,2381,neu,8,right,4,false,431.40000000130385,1,test
01,2400,neu,2,right,6,true,414.3999999994412,3,test
01,2419,bas,2,left,4,true,778.8999999989755,1,test
01,2457,bas,2,right,4,true,551.9000000003725,3,test
01,2476,bas,8,right,4,true,440.3000000002794,4,test
01,2495,neu,2,left,6,true,596.000000001397,0,test
01,2514,neg,2,left,4,true,1027.8999999989755,0,test
01,2533,neg,2,left,4,false,568.9000000003725,2,test
01,2552,neu,8,right,6,true,408.40000000037253,4,test
01,2571,neg,8,right,6,true,1227.5000000009313,4,test
01,2590,neu,8,right,4,true,621.0000000009313,3,test
01,2609,neu,8,right,6,true,648.2000000015832,4,test
01,2628,neg,8,left,4,true,454.2999999993481,1,test
01,2647,neu,8,left,6,true,420.7000000006519,1,test
01,2666,neg,2,right,4,false,1308.1999999997206,2,test
01,2685,neg,2,left,6,false,742.1000000010245,2,test
01,2704,neu,2,left,6,true,593.8999999994412,1,test
01,2723,bas,2,right,6,false,641.9000000003725,5,test
01,2742,neu,2,left,6,true,381.1999999997206,1,test
01,2761,neu,8,left,4,true,401.79999999981374,1,test
01,2780,neg,8,left,4,true,448.40000000130385,0,test
01,2800,neg,2,left,6,true,846.8000000012107,0,test
01,2819,neu,8,left,4,true,1201.800000000745,0,test
01,2838,bas,2,right,6,true,423.60000000009313,4,test
01,2857,neg,8,right,6,true,530.6000000000931,4,test
01,2876,bas,8,left,6,true,657.6000000005588,0,test
01,2895,neu,8,right,6,true,1353.9999999995343,3,test
01,2914,neg,8,right,4,true,412.40000000130385,4,test
01,2933,neg,8,left,4,true,785.8999999989755,1,test
01,2952,neg,2,right,6,true,1276.7000000001863,4,test
01,2971,neu,2,right,6,true,457.9999999990687,4,test
01,2990,neu,8,left,6,true,640.1999999997206,1,test
01,3009,bas,2,left,4,true,696.7000000001863,0,test
01,3028,neg,8,left,4,true,378.7000000011176,1,test
01,3066,neg,2,right,6,true,401.79999999981374,4,test
01,3085,bas,2,left,6,true,437.0999999991618,1,test
01,3104,neg,2,left,6,true,587.0999999986961,1,test
01,3123,neg,8,left,6,true,477.8000000002794,1,test
01,3142,bas,2,right,6,true,397.80000000074506,4,test
01,3161,bas,8,right,4,true,418.2999999993481,4,test
01,3180,neg,2,left,6,true,374.2999999993481,1,test
01,3199,neu,2,left,6,true,394.09999999962747,1,test
01,3218,neu,2,left,6,true,510.09999999962747,0,test
01,3237,neg,2,right,6,true,853.2999999988824,4,test
01,3256,neg,2,left,4,false,742.3999999994412,4,test
01,3275,neg,2,left,4,true,444.8000000012107,1,test
01,3294,neu,8,right,4,true,399.70000000018626,3,test
01,3351,bas,8,right,4,true,378.8000000002794,4,test
01,3370,neg,8,left,6,true,617.4000000008382,0,test
01,3389,bas,8,left,4,true,404.999999998603,1,test
01,3408,neg,8,left,6,true,447.29999999981374,1,test
01,3427,neg,2,right,4,true,469.10000000009313,4,test
01,3446,bas,2,left,6,true,417.39999999990687,1,test
01,3465,neu,2,right,4,true,407.6000000005588,4,test
01,3484,neu,2,left,4,true,437.2000000006519,1,test
01,3522,bas,8,right,6,true,393.00000000046566,4,test
01,3541,neg,2,left,4,false,621.1999999992549,5,test
01,3560,bas,2,left,4,true,398.80000000074506,1,test
01,3579,neg,8,right,6,true,450.89999999990687,4,test
01,3598,neu,8,left,6,true,365.89999999897555,1,test
01,3617,bas,2,right,6,true,434.7999999993481,3,test
01,3636,neg,8,left,4,true,696.0999999991618,1,test
01,3655,bas,2,right,4,true,390.7999999993481,3,test
01,3674,neu,2,right,6,true,1329.7000000001863,4,test
01,3693,bas,2,right,4,true,530.1999999992549,3,test
01,3712,neg,8,right,6,true,974.7999999998137,4,test
01,3731,neu,8,left,6,true,408.99999999953434,1,test
01,3750,bas,8,right,6,true,510.49999999813735,3,test
01,3769,neu,2,left,6,true,814.5999999996275,1,test
01,3788,bas,2,left,4,true,388.5000000009313,0,test
01,3807,neg,2,left,4,true,365.8999999985099,1,test
01,3826,neu,8,right,6,true,384.7000000006519,4,test
01,3845,neu,8,left,4,true,374.70000000018626,1,test
01,3883,neg,8,right,4,true,624.1999999983236,3,test
01,3902,bas,8,right,4,true,382.7999999993481,4,test
01,3921,neg,2,left,4,false,710.5999999982305,2,test
01,3940,bas,8,right,4,true,394.2000000006519,4,test
01,3959,bas,2,right,4,true,380.5000000009313,4,test
01,3978,neu,8,right,4,true,372.7999999988824,4,test
01,3997,neg,2,right,4,true,441.89999999990687,4,test
01,4016,neg,2,left,6,true,1077.4000000003725,1,test
01,4035,neg,8,right,4,true,668.3000000012107,3,test
01,4054,bas,2,right,4,true,554.1000000010245,4,test
01,4073,neu,8,right,4,true,374.5,4,test
01,4092,neg,8,right,4,true,524.1999999997206,4,test
01,4111,neg,2,right,6,true,590.5999999996275,3,test
01,4130,bas,2,right,6,true,863.3999999999069,4,test
01,4168,bas,8,left,4,true,564.5000000004657,0,test
01,4187,neu,2,left,4,false,424.00000000046566,5,test
01,4206,bas,8,left,6,true,642.8999999989755,1,test
01,4225,bas,8,left,4,true,593.0999999996275,1,test
01,4244,neu,2,left,6,true,387.8000000002794,0,test
01,4263,neg,8,right,4,true,567.1000000000931,4,test
01,4282,bas,2,right,6,true,477.80000000074506,4,test
01,4301,bas,8,left,4,true,1031.8999999999069,1,test
01,4320,neu,8,right,6,true,965.2000000006519,4,test
01,4339,neu,2,right,4,true,422.8000000002794,4,test
01,4358,neg,2,right,4,false,644.0999999996275,2,test
01,4377,bas,2,left,6,true,369.09999999962747,1,test
01,4396,bas,8,right,4,true,410,4,test
01,4415,neu,2,left,4,true,956.7999999998137,1,test
01,4434,neg,8,left,4,true,504.39999999990687,1,test
01,4453,neu,2,right,4,true,374.7000000006519,3,test
01,4472,neu,8,left,4,true,395.8999999994412,1,test
01,4491,neu,8,left,6,false,905.8999999999069,4,test
01,4510,neg,2,right,4,true,391.6000000005588,3,test
01,4529,neu,2,right,6,true,460.0000000009313,4,test
01,4548,bas,8,left,6,true,352.30000000074506,1,test
01,4567,neg,8,right,6,true,361.2999999988824,4,test
01,4586,neu,2,left,6,true,359.499999998603,1,test
01,4605,neg,2,right,6,true,5729.800000000745,3,test
01,4624,neu,8,left,4,true,362.9999999990687,0,test
01,4643,neu,2,right,6,true,377.89999999990687,4,test
01,4662,bas,8,left,6,true,368.09999999962747,0,test
01,4681,neu,8,right,4,true,570.3999999989755,3,test
01,4700,neu,2,left,4,true,389.6999999997206,1,test
01,4719,bas,2,left,4,true,1026.0999999991618,1,test
01,4738,bas,8,left,4,true,665.3999999999069,0,test
01,4757,neu,2,right,4,true,386.90000000130385,4,test
01,4776,bas,2,left,6,true,395.00000000046566,1,test
01,4795,neu,8,right,6,true,359.50000000046566,3,test
01,4814,neg,8,right,6,true,1159.9999999995343,4,test
01,4833,neu,2,right,4,true,645.4999999990687,4,test
01,4871,neu,8,right,6,true,349.29999999981374,4,test
01,4909,neg,8,left,6,true,363.0000000009313,1,test
01,4928,bas,2,left,6,true,346.5,1,test
01,4947,neg,2,right,4,true,749.8999999989755,4,test
01,4966,bas,2,right,4,true,390.6999999997206,4,test
01,5004,neu,2,left,4,true,640.6999999997206,1,test
01,5023,bas,8,right,6,true,376.0999999991618,4,test
01,5042,neg,8,left,4,true,363.1999999997206,1,test
01,5061,neg,2,left,6,false,338.0999999991618,2,test
01,5080,neu,8,left,6,true,374.6999999983236,1,test
01,5099,neu,2,right,6,true,655.2000000011176,3,test
01,5118,neu,8,left,4,true,1250.8000000016764,1,test
01,5137,neu,8,right,4,true,515.5999999991618,3,test
01,5156,neg,8,left,6,true,1450.699999999255,0,test
01,5194,bas,8,left,6,true,401.9000000008382,0,test
01,5213,bas,2,left,4,true,378.80000000074506,1,test
01,5232,bas,8,right,6,true,374.10000000102445,4,test
01,5251,bas,8,right,6,true,379.4999999990687,4,test
01,5271,bas,8,right,6,true,448.2000000011176,3,test
01,5290,neg,8,right,4,true,388.60000000009313,4,test
01,5309,neg,2,left,4,false,389.39999999990687,2,test
01,5328,bas,2,right,4,true,445.1000000005588,4,test
01,5347,neu,8,left,6,true,424.9999999990687,0,test
01,5366,neu,2,left,6,true,378.39999999990687,1,test
01,5385,bas,2,left,4,true,347.7000000006519,1,test
01,5404,bas,8,left,4,true,363.60000000102445,1,test
01,5423,neg,8,left,4,true,1216.0000000004657,1,test
01,5442,neg,8,right,6,true,1111.9999999990687,3,test
01,5461,bas,2,left,4,true,388.89999999990687,1,test
01,5480,neg,2,left,6,true,406.60000000009313,1,test
01,5499,neu,2,left,6,true,1347.299999999348,1,test
01,5518,bas,8,right,6,true,348.7999999993481,4,test
01,5537,bas,8,right,4,true,391.90000000037253,4,test
01,5556,neu,8,right,6,true,438.00000000046566,3,test
01,5575,bas,8,right,4,true,382.000000001397,4,test
01,5594,neu,2,left,6,true,708.1999999992549,1,test
01,5613,neu,8,right,6,true,2833.3000000002794,4,test
01,5632,bas,8,left,4,true,391.70000000018626,1,test
01,5670,neu,2,right,6,false,933.3999999999069,5,test
01,5689,neu,2,left,6,true,348.2000000006519,1,test
01,5708,neg,2,right,6,false,584.8000000007451,2,test
01,5727,neu,8,right,4,true,393.29999999981374,4,test
01,5746,bas,2,right,6,true,730.6000000005588,4,test
01,5765,bas,8,right,6,true,383.4000000008382,3,test
01,5784,neg,8,left,4,true,434.6000000005588,1,test
01,5803,neg,2,right,4,true,932.3999999994412,4,test
01,5822,neg,8,left,6,false,2680.9999999990687,5,test
01,5841,bas,2,right,6,true,419.10000000102445,4,test
01,5860,neg,2,right,4,false,1601.3000000002794,2,test
01,5879,neu,2,right,6,true,348.0999999991618,4,test
01,5898,bas,8,left,6,true,353.60000000009313,1,test
01,5917,bas,2,left,6,true,402.59999999962747,1,test
01,5936,neu,2,left,6,true,685.1000000005588,1,test
01,5955,neu,2,right,6,true,599.2999999998137,4,test
01,5974,neg,8,right,6,true,423.2000000011176,4,test
01,5993,bas,8,left,4,true,352.39999999990687,1,test
01,6012,bas,8,left,6,true,401.3000000016764,0,test
01,6031,bas,8,right,4,true,710.9999999990687,4,test
01,6050,neu,8,left,4,true,376,1,test
01,6069,neu,2,left,4,true,414.4999999990687,1,test
01,6088,neg,2,left,4,true,465.9000000008382,0,test
01,6107,neg,8,right,4,true,365.09999999869615,4,test
01,6126,bas,8,left,6,true,394.7000000006519,1,test
01,6145,neg,2,left,6,true,353.7999999988824,0,test
01,6164,bas,2,left,6,true,362.10000000009313,1,test
01,6183,bas,8,right,6,true,969.9999999995343,3,test
01,6202,neg,2,right,6,false,698.3000000002794,5,test
01,6221,neg,2,left,6,true,333.69999999925494,1,test
01,6240,bas,2,right,4,true,444.49999999953434,3,test
01,6259,neg,2,right,6,true,662.4000000008382,4,test
01,6278,neu,8,left,4,true,394,1,test
01,6297,bas,2,right,4,true,724.7999999998137,4,test
01,6316,neu,8,left,6,false,460.1999999997206,2,test
01,6335,bas,2,left,6,true,383.5,1,test
01,6354,neg,2,left,4,true,399.90000000037253,1,test
01,6373,bas,2,left,4,true,708.7000000006519,1,test
01,6392,neu,8,right,6,true,490.5,3,test
01,6411,bas,8,left,4,true,343.4999999990687,1,test
01,6430,neu,2,right,6,true,373.6999999997206,4,test
01,6468,bas,2,left,6,true,381.6000000005588,1,test
01,6525,neg,2,left,4,true,405.3000000002794,0,test
01,6544,neg,2,right,6,true,343.79999999841675,4,test
01,6563,neu,2,right,6,true,322.4000000008382,4,test
01,6582,neu,8,left,4,true,659.4000000003725,0,test
01,6601,neg,2,left,4,true,398.1999999997206,1,test
01,6620,bas,2,right,4,true,368.00000000046566,4,test
01,6658,neg,8,left,6,true,414.39999999990687,0,test
01,6677,bas,2,right,6,true,417.20000000158325,4,test
01,6696,neu,8,left,6,true,418.1999999983236,1,test
01,6715,neu,8,right,6,true,414.8000000002794,4,test
01,6734,neu,2,right,4,false,382.40000000037253,5,test
01,6753,bas,2,right,6,true,378.89999999990687,4,test
01,6772,bas,2,left,4,true,385,1,test
01,6791,neg,2,left,6,false,910.5999999996275,2,test
01,6810,neu,8,right,4,true,360.40000000037253,4,test
01,6848,neu,2,left,4,true,349.8999999994412,1,test
01,6867,neu,8,right,4,true,651.1999999992549,3,test
01,6886,neu,8,right,6,true,391,4,test
01,6905,neg,8,right,4,true,549.1000000005588,3,test
01,6962,neg,8,left,6,true,337.6000000005588,1,test
01,6981,neu,8,left,4,true,350.09999999962747,1,test
01,7000,bas,2,right,6,true,420.7000000011176,3,test
01,7019,neg,8,left,4,true,353.90000000037253,1,test
01,7038,neg,2,right,4,true,778.0000000009313,4,test
01,7057,neu,8,left,4,true,363.30000000074506,1,test
01,7076,neg,8,right,4,true,376.19999999925494,4,test
01,7095,neg,2,right,4,false,446.5,1,test
01,7114,bas,8,right,4,true,400.70000000018626,4,test
01,7133,neg,8,left,6,true,711.4999999990687,0,test
01,7152,neu,2,left,4,true,385.3999999994412,0,test
01,7171,bas,2,left,4,true,408.2999999988824,0,test
01,7190,bas,8,left,4,true,596.8000000007451,1,test
01,7209,neg,8,left,6,true,381.40000000037253,1,test
01,7228,bas,8,left,6,true,364.1000000005588,1,test
01,7266,neg,8,left,4,true,359.8999999994412,1,test
01,7285,neg,2,right,6,false,540.8999999994412,5,test
01,7304,neg,2,right,4,true,347.79999999981374,4,test
01,7323,neg,8,right,4,true,363.3000000016764,4,test
01,7342,neu,8,right,4,true,407.6000000005588,4,test
01,7361,neg,8,right,6,true,356.1000000014901,3,test
01,7380,neu,2,right,4,true,329.3000000016764,4,test
01,7399,bas,8,left,6,true,338.1000000014901,1,test
01,7418,bas,8,right,6,true,359.2000000011176,4,test
01,7437,neg,2,left,6,false,493.8999999994412,2,test
01,7456,neu,8,right,4,false,677.2999999988824,5,test
01,7475,neg,8,left,4,true,366.90000000130385,1,test
01,7494,neg,8,right,6,true,718.1000000005588,4,test
01,7513,neu,2,right,4,true,882.7000000001863,3,test
01,7532,neg,8,right,6,true,332.5,4,test
01,7551,bas,8,right,4,true,324.09999999962747,4,test
01,7570,neu,2,left,4,true,389.19999999925494,1,test
01,7589,neu,2,right,4,false,340.1000000014901,5,test
01,7608,neu,8,left,6,true,322.59999999962747,1,test
01,7627,bas,2,left,6,true,380.3999999994412,1,test
01,7665,neu,8,left,6,true,330.6000000014901,1,test
01,7684,neu,2,right,4,true,510.7000000011176,4,test
01,7703,neu,2,left,4,true,381.5,1,test
01,7722,bas,2,right,4,true,425.7999999988824,4,test
01,7742,neu,2,right,4,true,802,3,test
01,7761,bas,8,left,6,true,366.5,0,test
01,7780,neu,2,left,4,true,376.79999999981374,1,test
01,7799,neg,8,left,6,true,350.79999999981374,1,test
01,7818,bas,8,left,6,true,349,1,test
01,7837,neu,2,right,4,false,359.09999999962747,5,test
01,7856,bas,8,right,4,true,355,4,test
01,7875,bas,2,right,6,true,355.4999999990687,4,test
01,7894,bas,2,right,6,true,381.09999999962747,3,test
01,7913,neu,8,right,6,true,363.00000000186265,4,test
01,7951,neg,8,left,4,true,320.70000000018626,1,test
01,7970,neg,8,right,6,true,342.3999999994412,3,test
01,7989,neu,2,right,4,true,326.3999999994412,4,test
01,8027,neu,2,left,6,true,347,1,test
01,8046,neg,8,left,4,true,340.3999999985099,0,test
01,8065,neg,2,left,4,true,351.3999999994412,1,test
01,8084,neg,2,left,6,false,611.3000000007451,2,test
01,8103,bas,2,left,4,true,315.9999999990687,1,test
01,8122,neg,8,right,4,true,359.5000000009313,4,test
01,8141,bas,2,left,4,true,366.5,1,test
01,8160,neg,2,left,4,false,490.09999999869615,5,test
01,8198,neu,8,right,4,true,353.0000000009313,4,test
01,8217,neg,2,right,6,false,375.70000000018626,5,test
01,8236,bas,8,right,6,true,367.29999999981374,4,test
01,8255,neu,8,right,4,true,299.8999999994412,4,test
01,8274,bas,8,right,4,true,485.40000000130385,4,test
01,8293,neg,8,right,6,true,403.09999999962747,4,test
01,8312,neg,8,left,6,true,365.20000000018626,1,test
01,8331,neu,2,left,4,false,1581.7999999998137,2,test
01,8350,neg,2,right,4,true,382.29999999981374,4,test
01,8369,neu,8,left,6,true,340.79999999981374,1,test
01,8388,bas,8,right,6,true,378.6000000005588,4,test
01,8407,neg,2,left,4,false,350.30000000074506,5,test
01,8426,neu,8,left,4,true,664.2999999998137,0,test
01,8445,neg,2,right,4,false,648.2999999988824,2,test
01,8464,neg,8,right,6,true,322.8999999994412,4,test
01,8483,bas,2,left,4,true,350.19999999925494,1,test
01,8502,bas,2,right,4,true,348.5,4,test
01,8521,neu,8,left,6,true,436.20000000018626,1,test
01,8540,bas,2,left,6,true,615.7999999998137,1,test
01,8559,bas,8,right,6,true,429.1999999983236,4,test
01,8578,neu,2,left,6,true,370.80000000074506,1,test
01,8597,neg,8,left,4,true,337.59999999869615,1,test
01,8616,bas,8,left,4,true,442.2000000011176,1,test
01,8635,neg,8,right,4,true,635.0999999996275,4,test
01,8654,neg,2,left,4,true,612.6000000005588,0,test
01,8673,neu,2,right,6,true,378.2999999988824,4,test
01,8692,neg,8,right,4,true,385.90000000130385,4,test
01,8711,bas,8,left,6,true,328.29999999981374,1,test
01,8730,bas,2,left,4,true,400.30000000074506,1,test
01,8749,bas,2,left,6,true,678.3000000016764,1,test
01,8768,bas,8,right,4,true,540.6999999992549,4,test
01,8787,neg,8,right,4,true,357.1000000005588,4,test
01,8806,bas,8,left,6,true,518.6000000005588,0,test
01,8825,bas,2,left,6,true,392.40000000037253,1,test
01,8844,bas,8,right,4,true,359.69999999925494,4,test
01,8882,neu,8,left,4,true,436,0,test
01,8901,bas,2,left,6,true,545.5999999986961,0,test
01,8920,neg,2,left,6,true,392.1999999983236,1,test
01,8939,bas,2,right,4,false,694.6000000005588,2,test
01,8958,neg,2,right,4,true,339.40000000037253,4,test
01,8977,neg,2,left,6,false,366.79999999981374,2,test
01,8996,neu,2,right,6,true,358.59999999962747,4,test
01,9015,bas,2,right,4,true,367.5,4,test
01,9034,neu,8,right,4,true,1029.1000000014901,4,test
01,9053,neu,8,right,6,true,695.6999999983236,4,test
01,9072,neg,2,left,4,true,374.5,1,test
01,9091,bas,2,right,6,true,420.1000000005588,3,test
01,9110,neg,2,right,6,true,362.70000000018626,4,test
01,9129,neg,2,left,6,true,332.79999999981374,1,test
01,9148,bas,8,left,4,true,662.2000000001863,0,test
01,9186,neu,8,left,6,true,408.19999999925494,1,test
01,9205,neu,8,right,6,true,348.79999999981374,4,test
01,9224,neu,8,right,6,true,353.0000000009313,4,test
01,9243,neg,8,left,6,true,616.3000000016764,0,test
01,9262,neg,2,left,6,false,339.8999999994412,2,test
01,9281,neg,8,right,6,true,347.90000000037253,4,test
01,9300,neu,2,right,6,false,316.30000000074506,5,test
01,9319,bas,2,left,4,true,363.3999999994412,1,test
01,9338,neg,8,right,6,true,358.5,4,test
01,9357,neu,2,left,6,true,370.19999999925494,1,test
01,9395,bas,8,left,6,true,319.2999999988824,1,test
01,9414,bas,2,right,6,true,622.6000000005588,4,test
01,9433,neu,2,right,6,true,349.2000000011176,4,test
01,9452,neu,2,left,6,false,363.2999999988824,5,test
01,9471,bas,8,right,6,true,329.8999999985099,4,test
01,9490,neg,2,right,4,false,460.8999999994412,2,test
01,9509,bas,2,right,6,true,351.3999999994412,4,test
01,9528,neu,2,left,4,true,628.2999999998137,1,test
01,9547,neg,2,right,6,true,345.80000000074506,4,test
01,9566,neu,8,right,4,true,340.59999999962747,4,test
01,9585,bas,2,right,4,true,611.6000000005588,3,test
01,9604,bas,8,left,4,true,376.1000000014901,1,test
01,9623,neg,8,left,4,true,338.2999999988824,1,test
01,9642,neu,8,right,4,true,462.09999999869615,4,test
01,9661,bas,8,right,4,true,354.8999999985099,4,test
01,9699,neg,2,right,6,true,358.29999999981374,4,test
01,9718,bas,2,left,6,true,336.59999999962747,1,test
01,9737,neg,2,right,6,false,384,5,test
01,9756,neu,2,left,6,true,345.00000000186265,1,test
01,9775,neg,8,left,6,true,382.9999999990687,0,test
01,9794,neu,8,left,4,true,627.1999999992549,0,test
01,9813,bas,8,left,4,true,463.00000000186265,0,test
01,9832,neu,8,left,4,true,367,0,test
01,9851,neu,2,right,4,true,340.5,4,test
01,9870,bas,8,right,6,false,747.6999999992549,5,test
01,9889,neg,8,left,4,true,1058.0999999996275,1,test
01,9908,neu,2,left,4,true,367.2000000011176,1,test
01,9927,neg,8,left,6,true,299.2999999988824,1,test
01,9946,neu,8,right,6,true,377.7000000011176,4,test
01,9965,bas,2,right,4,true,369.19999999925494,4,test
01,9984,bas,8,left,4,true,584.1999999992549,1,test
01,10003,neu,2,right,6,true,565.2000000001863,4,test
01,10022,neu,8,left,6,true,357.69999999925494,1,test
01,10060,neg,8,right,4,true,379.90000000037253,4,test
01,10079,neu,8,left,6,true,370.30000000074506,1,test
01,10098,neg,2,right,4,false,324.59999999962747,5,test
01,10136,neu,2,right,4,true,518.4000000003725,4,test
01,10155,neu,8,left,4,true,359.8999999994412,1,test
01,10193,neu,2,left,4,true,380.6000000005588,1,test
01,10213,neg,8,left,6,true,368.9999999990687,1,test
01,10232,neu,2,left,6,true,399.1000000005588,0,test
01,10251,neg,8,right,6,true,378.8999999994412,4,test
01,10270,neu,8,right,4,true,633.0999999986961,4,test
01,10289,bas,2,right,4,true,358.2000000011176,4,test
01,10308,neg,2,left,4,true,599.2000000011176,1,test
01,10327,neu,2,right,4,true,330.69999999925494,4,test
01,10346,neg,8,left,6,true,346.2999999988824,1,test
01,10365,neg,8,right,4,true,347.4999999990687,3,test
01,10384,bas,2,left,6,true,368.1000000005588,0,test
01,10403,neu,8,right,4,true,323.3999999994412,3,test
01,10422,neg,8,left,4,true,615.7999999998137,0,test
01,10441,neu,2,right,4,true,316.19999999925494,4,test
01,10460,bas,8,left,4,true,344.09999999869615,1,test
01,10479,neu,8,left,6,true,559.2000000001863,0,test
01,10498,neg,8,left,4,true,347.7999999988824,0,test
01,10517,bas,8,left,6,true,356.79999999981374,1,test
01,10555,neg,2,left,4,true,399.2999999988824,1,test
01,10574,neu,8,left,4,true,649.2999999998137,0,test
01,10593,neg,8,left,4,true,339.09999999962747,1,test
01,10612,bas,8,left,6,true,331.6000000005588,1,test
01,10631,bas,2,left,4,true,587.8000000016764,0,test
01,10650,bas,8,left,4,true,373.1000000005588,1,test
01,10669,neg,2,left,4,true,822.0999999986961,1,test
01,10688,neu,8,left,6,true,324.90000000130385,1,test
01,10707,bas,2,left,6,true,698.1999999992549,0,test
01,10726,neg,2,left,6,true,359.7000000011176,1,test
01,10745,neg,2,right,6,false,384.90000000130385,2,test
01,10764,neu,2,left,4,true,2324.899999999441,0,test
01,10783,neu,8,right,6,true,410.3000000016764,4,test
01,10802,bas,2,left,4,true,398.09999999962747,1,test
01,10821,neg,8,right,6,true,4864.800000000745,4,test
01,10840,neu,2,left,4,true,390.00000000186265,1,test
01,10859,neg,8,left,4,true,403,0,test
01,10878,neu,8,right,4,true,392.20000000018626,3,test
01,10897,neg,2,left,4,false,1050.7000000011176,2,test
01,10916,bas,2,right,6,true,368.29999999981374,3,test
01,10935,neg,2,right,4,true,338.3000000016764,4,test
01,10954,bas,8,left,6,true,1494,1,test
01,10992,neu,8,right,6,true,374.09999999869615,4,test
01,11011,neg,8,right,6,true,380.90000000037253,4,test
01,11030,neg,8,right,6,true,393.40000000130385,4,test
01,11049,bas,8,right,4,true,344.59999999962747,4,test
01,11068,neg,2,right,6,true,330.09999999869615,4,test
01,11087,neu,2,right,4,true,332.3999999994412,4,test
01,11106,neu,8,right,4,true,418.79999999981374,4,test
01,11125,neg,2,right,4,true,346.70000000018626,4,test
01,11144,neg,2,left,4,true,414.7000000011176,1,test
01,11163,neu,2,right,4,true,1033.7000000001863,4,test
01,11182,bas,8,left,4,true,604.6000000005588,0,test
01,11201,neu,2,right,6,true,352.69999999925494,4,test
01,11220,neg,2,right,4,true,333.19999999925494,4,test
01,11239,neu,8,left,6,true,554.2999999998137,1,test
01,11258,neg,2,right,6,true,311.70000000018626,4,test
01,11296,neu,8,right,4,true,318.3999999994412,4,test
01,11315,bas,2,right,4,true,284.6000000014901,4,test
01,11334,bas,2,right,6,false,622.2000000001863,5,test
01,11353,neu,2,left,4,true,347.70000000018626,1,test
01,11372,neg,2,left,6,false,360.6000000005588,5,test
01,11391,neu,2,right,6,true,358.90000000037253,4,test
01,11410,bas,8,right,6,true,340.30000000074506,4,test
01,11429,bas,8,right,6,true,297.5000000009313,4,test
01,11448,neu,8,left,6,true,337.19999999925494,1,test
01,11467,neu,2,left,6,false,600.0000000009313,5,test
01,11486,bas,8,right,4,true,380.1000000005588,3,test
01,11505,bas,8,right,4,true,366.7000000011176,4,test
01,11524,neg,8,right,4,true,752.2000000001863,4,test
01,11543,neu,2,left,4,true,382.59999999869615,0,test
01,11562,bas,2,right,6,true,355.2000000011176,4,test
01,11581,neu,8,right,6,true,315.59999999962747,4,test
01,11600,neg,2,left,6,true,338,1,test
01,11619,neg,8,left,6,false,810.6999999992549,2,test
01,11638,neg,8,left,6,false,968.1999999992549,2,test
01,11657,neu,2,left,6,true,400.3000000016764,1,test
01,11676,neu,2,left,4,true,354.9999999990687,1,test
01,11695,neg,8,left,6,true,352.2000000011176,1,test
01,11714,neu,2,right,4,true,392.1000000014901,4,test
01,11752,bas,8,left,4,false,319.8999999985099,2,test
01,11771,neu,2,right,6,false,325.1000000005588,5,test
01,11790,bas,2,left,6,true,368.3999999994412,0,test
01,11809,bas,8,right,6,true,337,4,test
01,11828,neg,2,right,4,false,1027.9999999990687,5,test
01,11847,bas,2,left,4,true,608.3999999994412,1,test
01,11866,bas,8,right,6,true,354.6000000005588,4,test
01,11885,bas,2,right,6,false,333.7000000011176,5,test
01,11904,neg,8,right,4,true,413.1000000005588,4,test
01,11923,bas,8,left,6,true,351.80000000074506,1,test
01,11942,bas,2,left,4,true,703.4000000003725,1,test
01,11961,neg,2,right,4,true,404.09999999962747,4,test
01,11980,bas,8,left,6,true,379.7000000011176,1,test
01,11999,neu,8,left,4,false,307.69999999925494,4,test
01,12018,bas,2,right,6,true,360.59999999962747,4,test
01,12037,neu,8,right,6,true,320.20000000018626,4,test
01,12056,neg,2,left,6,false,734.3999999994412,5,test
01,12075,bas,2,left,4,true,384.29999999981374,1,test
01,12094,neu,2,right,6,false,413.3999999994412,1,test
01,12113,neu,2,right,6,true,352.2000000011176,4,test
01,12132,bas,2,right,4,true,361.4999999990687,4,test
01,12170,neu,8,right,6,true,327.3999999994412,4,test
01,12189,neu,2,left,6,true,383.70000000018626,0,test
01,12227,bas,8,right,6,true,373.90000000037253,4,test
01,12246,bas,2,left,6,true,425.80000000074506,1,test
01,12265,bas,2,left,6,true,496.09999999962747,1,test
01,12303,neg,2,right,6,false,314.80000000074506,5,test
01,12322,neu,8,left,4,true,343.9999999990687,1,test
01,12341,neg,8,left,4,false,606.9000000013039,4,test
01,12360,bas,8,right,4,true,307.6000000005588,4,test
01,12379,neu,8,left,4,true,417.1000000005588,1,test
01,12398,bas,8,right,4,true,306.19999999925494,4,test
01,12417,neu,2,left,6,true,624.2999999998137,0,test
01,12436,bas,8,left,4,true,576.4999999990687,1,test
01,12455,bas,2,right,4,true,405.2000000011176,4,test
01,12474,neg,8,right,6,true,316.19999999925494,4,test
01,12493,neg,8,right,4,true,309.30000000074506,4,test
01,12512,bas,2,right,4,true,385.5,4,test
01,12531,neg,2,right,6,true,369.49999999813735,4,test
01,12550,neg,2,left,6,true,379.40000000037253,1,test
01,12588,neu,8,left,6,true,334.19999999925494,1,test
01,12626,neu,8,left,4,true,406.0000000009313,0,test
01,12645,neg,8,right,4,true,348.20000000018626,4,test
02,329,bas,8,right,4,true,688.2999999980675,3,test
02,348,bas,2,left,4,true,678.4999999981374,0,test
02,367,bas,2,right,4,true,932.7999999986496,3,test
02,386,bas,2,right,4,true,1038.5000000024447,3,test
02,405,neg,2,right,6,false,2221.800000002957,2,test
02,424,neu,8,right,4,true,538.300000000163,3,test
02,443,bas,8,left,6,true,442.299999998766,0,test
02,462,bas,2,right,6,true,739.7000000019325,3,test
02,481,bas,2,left,4,true,577.8000000027241,0,test
02,500,neg,2,right,4,true,646.3000000003958,3,test
02,519,bas,2,left,6,true,664.1999999992549,0,test
02,538,neg,2,left,4,true,646.100000001723,0,test
02,557,neu,8,left,4,true,523.4999999994179,1,test
02,576,neu,2,left,6,false,673.8000000005122,5,test
02,595,neu,8,right,4,true,572,3,test
02,614,neg,2,left,4,true,674.1000000002095,0,test
02,633,neu,8,left,6,true,930.7999999981839,1,test
02,652,neg,8,right,4,true,414.60000000009313,3,test
02,671,neu,2,left,4,true,770.300000000163,1,test
02,690,neg,8,left,6,true,442.80000000074506,0,test
02,709,bas,8,left,6,true,575.0000000006985,0,test
02,728,bas,8,right,4,true,681.5999999999767,3,test
02,766,neg,2,left,6,true,534.1999999982072,1,test
02,785,bas,2,left,6,true,512.8999999979278,0,test
02,804,neg,8,right,4,true,522.6000000002095,3,test
02,823,neg,2,right,6,true,660.80000000156,3,test
02,842,neg,2,right,4,true,863.4999999994179,3,test
02,861,neu,8,right,6,true,451.4000000017695,3,test
02,880,neu,8,left,6,true,406.6000000020722,0,test
02,899,neg,2,left,6,true,498.8999999986263,0,test
02,918,neu,2,right,4,true,435.7999999993481,4,test
02,937,bas,8,right,4,true,388.6000000020722,3,test
02,956,neu,2,left,4,true,434.100000002305,0,test
02,975,neu,2,right,4,false,510.50000000034925,0,test
02,994,bas,2,right,4,false,677.7000000001863,0,test
02,1013,bas,8,right,4,false,1038.199999999022,1,test
02,1032,bas,8,left,4,true,3150.7999999994645,0,test
02,1051,neu,2,right,4,true,873.4999999977881,3,test
02,1070,neu,2,left,6,true,531.8000000007451,0,test
02,1089,bas,8,left,4,true,477.00000000267755,0,test
02,1108,neu,2,left,4,false,987.7999999989988,2,test
02,1127,bas,8,right,4,false,772.9000000000233,5,test
02,1146,neg,8,right,6,true,541.7999999991152,3,test
02,1165,neg,8,right,6,true,517.7000000003027,3,test
02,1184,bas,8,right,6,true,442.50000000104774,3,test
02,1203,neg,2,left,6,false,977.6999999994878,2,test
02,1222,neg,8,left,4,true,464.89999999909196,0,test
02,1241,bas,8,left,6,true,497.8999999985099,0,test
02,1260,bas,2,right,6,true,650.3000000010943,3,test
02,1279,neu,2,left,6,true,465.20000000239816,0,test
02,1298,neu,8,right,4,true,413.49999999871943,3,test
02,1317,neg,8,left,6,true,548.9999999990687,0,test
02,1336,neu,8,left,4,true,737.1000000020722,0,test
02,1355,neg,8,left,6,true,455.69999999867287,0,test
02,1374,neu,8,right,6,true,495.200000001234,3,test
02,1393,neg,2,right,4,true,524.6999999980908,3,test
02,1412,neg,2,right,4,true,377.00000000046566,4,test
02,1431,bas,2,right,4,true,445.900000002468,3,test
02,1450,bas,2,left,4,true,395.49999999871943,0,test
02,1469,neg,2,left,6,true,567.2000000013504,0,test
02,1488,neg,8,left,4,true,562.3000000014435,0,test
02,1507,neg,2,left,4,true,519.8999999992084,0,test
02,1526,bas,8,left,6,true,666.8000000027241,1,test
02,1545,neg,8,right,4,true,416.29999999701977,3,test
02,1564,neu,8,right,6,true,537.4999999984866,3,test
02,1602,neg,2,right,6,true,421.90000000118744,3,test
02,1621,neu,8,left,4,true,590.5000000020955,0,test
02,1640,bas,8,left,4,true,459.6000000019558,0,test
02,1659,neu,2,right,6,false,1765.6000000025379,5,test
02,1678,neu,8,right,4,true,590.8000000016764,3,test
02,1697,bas,8,left,6,true,542.0000000012806,0,test
02,1716,neu,8,right,6,true,813.6000000013737,3,test
02,1735,neu,2,right,6,true,469.9000000000233,3,test
02,1754,neg,8,left,6,true,671.5000000003492,1,test
02,1773,neu,2,right,4,true,585.4999999974389,3,test
02,1792,bas,2,left,6,true,718.4000000015367,1,test
02,1849,neu,2,left,4,true,463.89999999885913,1,test
02,1868,bas,8,right,6,true,390.69999999995343,3,test
02,1887,neu,8,left,6,true,408.8999999985099,0,test
02,1906,neg,8,right,6,true,490.3999999987427,3,test
02,1925,neg,2,right,4,true,420.6000000012573,3,test
02,1944,neu,2,left,6,true,390.99999999965075,0,test
02,1963,neu,2,right,6,true,500.59999999939464,3,test
02,1982,neu,2,left,4,true,488.3000000008615,0,test
02,2001,bas,2,right,4,true,459.5000000009313,4,test
02,2020,neu,2,left,6,true,403.00000000186265,1,test
02,2058,bas,8,right,6,true,341.20000000251457,3,test
02,2077,neg,8,right,6,true,383.79999999981374,3,test
02,2115,neu,8,right,6,true,357.49999999813735,3,test
02,2134,neu,8,left,4,true,484.0999999977648,0,test
02,2153,neg,8,left,6,true,730.4000000003725,1,test
02,2172,neu,2,right,6,true,496.19999999785796,3,test
02,2191,bas,2,left,4,true,488.00000000116415,0,test
02,2210,bas,8,right,6,true,396.7000000011176,3,test
02,2229,neg,2,left,4,true,397.89999999990687,1,test
02,2248,bas,8,left,4,true,442.10000000009313,0,test
02,2267,neg,2,right,6,false,1924.9000000017695,2,test
02,2286,neg,2,left,4,true,406.9999999993015,0,test
02,2324,bas,2,left,6,true,427.70000000018626,0,test
02,2343,neg,2,left,6,false,896.2000000029802,2,test
02,2362,neu,8,right,4,true,382.099999998929,3,test
02,2400,neu,2,right,4,true,361.89999999990687,4,test
02,2419,bas,2,left,6,true,386.80000000004657,0,test
02,2438,bas,8,left,4,true,379.4000000017695,0,test
02,2457,neg,8,right,4,true,406.1999999976251,3,test
02,2476,neg,2,right,6,true,373.2999999993481,3,test
02,2514,neg,8,left,4,true,432.7000000013504,0,test
02,2533,bas,2,left,4,true,449.89999999967404,0,test
02,2552,neu,2,right,6,true,482.59999999939464,3,test
02,2571,neg,8,right,6,true,427.60000000265427,3,test
02,2590,neg,8,right,4,true,414.0000000006985,3,test
02,2628,neu,8,left,6,true,373.8999999987427,0,test
02,2647,neu,8,left,4,true,489.6999999983236,0,test
02,2666,neg,8,left,4,true,408.79999999748543,0,test
02,2685,bas,2,right,6,true,420.00000000186265,3,test
02,2704,bas,8,right,6,true,388.2000000013504,3,test
02,2723,neg,8,left,4,true,410.89999999897555,0,test
02,2742,bas,2,right,6,true,673.399999999674,3,test
02,2761,neu,8,left,6,true,354.7999999972526,0,test
02,2780,bas,2,right,6,true,361.0999999982305,3,test
02,2800,neu,8,left,4,true,746.4999999976717,0,test
02,2819,neu,8,left,4,true,515.5999999986961,1,test
02,2857,bas,8,left,6,true,466.8000000019092,0,test
02,2876,neu,2,left,6,true,554.5999999993946,0,test
02,2895,neg,8,right,6,true,353.6999999994878,4,test
02,2914,bas,8,right,4,true,564.7000000027474,4,test
02,2933,bas,8,left,4,true,546.8000000000466,0,test
02,2971,neu,8,left,6,true,468.4000000015367,0,test
02,2990,neu,8,right,4,true,381.6000000005588,4,test
02,3009,neu,8,right,4,true,384.39999999897555,3,test
02,3028,neg,2,left,6,true,443.59999999869615,0,test
02,3047,bas,2,left,6,true,447.29999999981374,0,test
02,3066,neg,2,right,6,true,1168.0000000016298,4,test
02,3085,neg,2,left,4,true,370.39999999990687,0,test
02,3142,bas,2,right,4,true,410.10000000102445,3,test
02,3161,neu,8,left,4,true,370.49999999720603,0,test
02,3180,bas,8,right,4,true,650.9999999979045,3,test
02,3199,neg,2,right,4,true,450.19999999925494,3,test
02,3218,neg,8,right,4,true,373.70000000018626,4,test
02,3237,neg,2,left,4,true,422.9000000015367,0,test
02,3256,bas,2,right,4,true,370.5999999982305,4,test
02,3275,neu,8,left,6,true,383.3999999987427,0,test
02,3294,neg,8,left,4,true,478.50000000116415,1,test
02,3332,neu,2,left,4,false,334.8000000005122,4,test
02,3351,neg,8,left,6,true,373.2999999993481,0,test
02,3370,neu,8,right,6,true,394.1999999987893,3,test
02,3389,bas,8,right,4,true,426.99999999953434,3,test
02,3408,neu,2,left,4,true,396.7999999986496,0,test
02,3427,neu,8,left,6,true,375.59999999939464,0,test
02,3446,neu,2,right,6,true,356.50000000186265,4,test
02,3465,neg,2,left,6,false,754.3999999978114,2,test
02,3484,bas,2,right,6,true,399.1999999997206,3,test
02,3503,neg,2,right,6,true,362.4999999993015,4,test
02,3522,bas,2,left,4,true,553.3999999971129,0,test
02,3541,neu,8,right,4,true,556.6999999973923,3,test
02,3560,bas,2,right,4,true,525.7000000020489,3,test
02,3579,neu,8,left,4,true,662.499999998603,0,test
02,3598,neu,2,left,4,true,825.4000000015367,0,test
02,3617,neu,2,right,6,true,735.800000002142,3,test
02,3636,neg,2,left,6,true,703.7999999993481,1,test
02,3655,bas,8,right,4,true,694.3999999966472,3,test
02,3674,bas,2,right,6,true,483.7000000006519,3,test
02,3693,neg,8,left,4,true,417.79999999911524,0,test
02,3712,bas,2,left,4,true,456.3000000016764,0,test
02,3750,neg,2,right,6,true,480.29999999911524,3,test
02,3769,neg,8,right,6,true,571.4000000008382,3,test
02,3788,bas,2,right,4,true,664.5000000025611,3,test
02,3807,neu,2,right,4,true,563.5000000002328,3,test
02,3826,neg,8,left,4,true,462.1000000005588,0,test
02,3845,bas,8,right,6,true,392,3,test
02,3864,bas,8,right,6,true,379.1999999994878,3,test
02,3883,neu,2,left,6,true,584.1000000000931,0,test
02,3902,neu,2,left,4,true,460.19999999785796,0,test
02,3921,neu,2,left,6,true,678.6000000028871,0,test
02,3940,neg,8,right,4,true,406.8000000005122,3,test
02,3959,bas,8,left,6,true,487.8000000026077,0,test
02,3997,neu,8,left,4,true,592.0000000004657,0,test
02,4016,neg,8,right,6,true,404.8000000002794,3,test
02,4035,neu,2,right,4,true,399.90000000037253,3,test
02,4054,neg,8,left,4,true,778.8000000000466,0,test
02,4073,bas,2,left,6,true,550.6000000021886,0,test
02,4092,neg,8,right,6,true,488.10000000242144,3,test
02,4111,neg,2,left,4,false,392.2999999993481,4,test
02,4130,neu,8,left,6,true,360.10000000172295,1,test
02,4149,neg,8,right,4,true,375.2999999995809,3,test
02,4168,neg,2,right,4,true,790.7000000013504,4,test
02,4187,neg,2,left,6,true,483.7000000006519,0,test
02,4206,neu,8,right,4,true,370.9000000017695,3,test
02,4225,neu,8,left,6,true,484.499999998603,0,test
02,4244,neu,8,right,6,true,405.39999999967404,4,test
02,4263,neu,2,left,6,true,380.1000000021886,1,test
02,4282,bas,2,right,6,true,358.1999999987893,3,test
02,4301,neu,8,right,6,true,371.5000000009313,3,test
02,4320,bas,8,right,4,true,339.7000000004191,4,test
02,4339,neg,2,right,6,true,364.10000000265427,3,test
02,4358,bas,8,left,4,true,442.80000000074506,0,test
02,4377,bas,8,right,6,true,377.00000000046566,3,test
02,4415,neg,2,left,4,false,367.89999999757856,2,test
02,4434,bas,8,left,6,true,330.20000000018626,0,test
02,4472,neu,8,right,6,true,471.3000000009779,3,test
02,4491,bas,2,left,4,true,388.8000000005122,0,test
02,4510,neu,2,right,4,true,368.20000000088476,3,test
02,4529,bas,2,left,6,true,421.3000000016764,0,test
02,4548,neu,2,right,6,true,418.60000000102445,3,test
02,4567,neg,2,right,4,true,471.49999999953434,3,test
02,4586,neg,8,left,6,true,443.8999999985099,1,test
02,4605,neg,8,left,6,true,464.8000000016764,0,test
02,4624,bas,2,left,6,true,360.40000000130385,0,test
02,4643,bas,2,left,4,true,485.79999999841675,0,test
02,4662,bas,2,left,4,true,763.3999999999069,0,test
02,4681,bas,8,left,4,true,772.4999999993015,0,test
02,4719,bas,8,right,6,true,359.00000000023283,3,test
02,4738,neg,8,right,6,true,362.39999999827705,3,test
02,4757,neu,2,right,4,true,390.599999998929,3,test
02,4776,neg,2,left,6,false,434.4999999993015,4,test
02,4795,neg,2,right,4,false,423.20000000088476,5,test
02,4814,bas,2,right,4,true,344.3000000005122,3,test
02,4833,bas,2,right,6,true,330.39999999897555,3,test
02,4852,neg,8,left,6,true,406.2000000013504,0,test
02,4871,bas,8,left,4,true,406.49999999720603,0,test
02,4890,bas,2,left,6,true,447.7000000004191,0,test
02,4909,neg,2,right,4,true,422.99999999883585,4,test
02,4928,bas,8,left,4,true,549.9999999993015,0,test
02,4947,neg,8,right,4,true,357.90000000270084,3,test
02,4966,bas,8,left,6,true,393.8000000016764,0,test
02,4985,bas,8,right,6,false,899.7999999991152,1,test
02,5004,neu,2,left,4,true,315.99999999883585,0,test
02,5023,neg,8,left,6,true,399.3999999985099,0,test
02,5042,neu,2,right,4,true,360.50000000256114,3,test
02,5061,neg,2,right,6,true,334.9000000015367,3,test
02,5080,neu,2,right,6,true,340.5000000020955,3,test
02,5099,bas,8,left,6,true,452.79999999911524,0,test
02,5118,neu,2,left,6,true,447.39999999734573,0,test
02,5137,neg,2,left,4,false,402.9000000008382,4,test
02,5156,neu,8,right,4,true,332.3999999992084,3,test
02,5175,neu,2,right,6,true,344.7000000013504,3,test
02,5194,bas,2,right,6,true,310.6000000007916,3,test
02,5213,neu,8,right,6,true,359.1000000014901,3,test
02,5232,neg,8,right,4,true,310.19999999995343,3,test
02,5251,neg,8,left,4,true,475.90000000130385,0,test
02,5271,neu,2,left,4,true,783.2999999993481,0,test
02,5290,neg,2,left,6,true,381.49999999953434,1,test
02,5309,neu,2,left,6,true,367.40000000270084,0,test
02,5328,neg,8,right,6,true,376.29999999981374,3,test
02,5347,neu,8,right,6,true,323.1000000012573,3,test
02,5366,bas,2,left,4,true,434.30000000074506,0,test
02,5385,neg,8,left,6,true,393.7000000006519,0,test
02,5404,bas,2,left,4,true,357.19999999855645,0,test
02,5423,neu,8,right,6,true,355.4999999976717,4,test
02,5442,neu,8,left,4,true,717.0000000004657,0,test
02,5461,bas,8,left,6,true,366.900000001071,0,test
02,5518,neu,2,right,6,true,396.3999999978114,3,test
02,5537,bas,2,right,6,true,348.39999999897555,3,test
02,5556,bas,2,right,6,true,326.4999999990687,3,test
02,5575,neu,2,left,6,true,382.7000000020489,0,test
02,5613,bas,8,left,4,true,642.2999999993481,0,test
02,5632,bas,8,left,4,true,836.4000000001397,0,test
02,5651,bas,2,right,4,true,324.8999999994412,3,test
02,5670,bas,2,right,4,true,369.29999999841675,3,test
02,5689,neu,2,left,4,true,371.6999999997206,0,test
02,5708,bas,8,left,6,true,483.00000000023283,1,test
02,5727,bas,2,left,4,true,391.60000000265427,0,test
02,5746,neu,8,left,4,true,600.6999999992549,0,test
02,5765,bas,2,right,4,true,333.69999999925494,4,test
02,5784,neu,2,left,4,true,399.59999999706633,0,test
02,5803,bas,8,right,4,true,414.50000000256114,3,test
02,5822,neu,2,right,6,true,353.2000000013504,3,test
02,5841,neu,2,right,6,true,426.8000000012107,3,test
02,5860,neu,2,right,6,true,416.2999999972526,3,test
02,5879,neu,8,right,4,true,366.20000000018626,4,test
02,5898,neu,8,left,6,true,452.90000000037253,0,test
02,5917,neu,2,left,4,true,649.1000000024214,0,test
02,5936,neu,2,right,6,true,370.9999999993015,3,test
02,5955,neu,2,right,4,true,370.6999999997206,4,test
02,5974,neg,8,right,6,true,452.9999999976717,3,test
02,5993,bas,8,right,4,true,307.7000000011176,3,test
02,6012,neg,2,right,4,true,509.6000000012573,3,test
02,6031,neg,8,right,6,true,378.60000000009313,3,test
02,6050,neu,8,right,6,true,333.50000000046566,3,test
02,6069,neg,8,left,4,true,396.5000000023283,1,test
02,6088,neg,2,left,4,true,398.69999999785796,0,test
02,6107,neg,8,right,4,true,353.6999999997206,3,test
02,6126,bas,2,left,4,true,630.6000000005588,0,test
02,6145,bas,2,left,6,true,389.2999999988824,0,test
02,6164,bas,2,left,6,true,438.2000000006519,0,test
02,6183,bas,2,left,6,true,364.90000000037253,1,test
02,6202,neg,2,left,6,false,477.59999999869615,2,test
02,6221,neg,2,left,4,false,452.4000000017695,2,test
02,6259,neg,2,left,6,true,432.3000000002794,0,test
02,6278,neg,8,left,4,true,346.6999999983236,0,test
02,6297,neg,8,left,6,true,348.59999999729916,0,test
02,6316,neg,8,right,6,true,325.69999999785796,3,test
02,6335,neu,2,left,6,true,388.6000000019558,0,test
02,6354,neu,2,left,4,true,356.49999999813735,0,test
02,6373,neg,2,left,4,true,355.70000000018626,0,test
02,6392,neg,8,right,6,true,374.10000000102445,3,test
02,6411,bas,8,left,6,true,331.5999999977648,0,test
02,6430,bas,8,right,6,true,362.3999999980442,4,test
02,6487,bas,8,right,6,true,452.000000001397,3,test
02,6506,neg,2,right,4,true,446,3,test
02,6525,neg,2,right,6,true,473.40000000270084,3,test
02,6544,bas,8,left,4,true,466.8999999994412,0,test
02,6563,bas,2,right,6,true,556.7000000011176,3,test
02,6582,neg,2,left,6,true,398.6000000005588,0,test
02,6601,neg,8,left,4,true,403.6999999987893,0,test
02,6620,neu,8,left,6,true,433.30000000074506,0,test
02,6639,bas,8,left,6,true,448.499999998603,0,test
02,6658,neg,2,left,6,true,374.50000000186265,0,test
02,6677,neu,2,left,6,true,362.3999999980442,0,test
02,6696,bas,2,right,6,true,343.70000000158325,3,test
02,6715,bas,2,left,6,true,728.4000000003725,0,test
02,6734,neg,2,right,6,true,376.50000000186265,4,test
02,6753,neu,8,left,4,true,325.19999999925494,0,test
02,6772,neu,2,right,4,true,285.89999999897555,3,test
02,6791,neu,8,right,4,true,426.9000000022352,3,test
02,6810,neu,8,right,4,true,421.2000000006519,3,test
02,6829,bas,8,left,4,true,454.5,0,test
02,6848,neg,2,right,6,true,334.40000000363216,4,test
02,6867,neg,2,right,4,true,222.5,3,test
02,6886,bas,8,right,4,true,419.5,4,test
02,6905,neg,8,right,4,true,309.90000000037253,3,test
02,6924,neg,2,right,4,true,749.8000000012107,4,test
02,6943,neu,8,right,4,true,337.699999996461,3,test
02,6981,neg,2,right,4,true,298.2000000011176,3,test
02,7000,neu,8,left,4,true,326.29999999701977,0,test
02,7019,neg,2,left,4,false,445.1999999983236,2,test
02,7038,neg,2,left,4,false,333.9999999990687,4,test
02,7057,neg,8,right,4,true,296.69999999925494,3,test
02,7076,bas,2,right,4,true,449.79999999841675,3,test
02,7095,neu,8,right,4,true,374.50000000186265,3,test
02,7114,neu,2,right,4,true,278.89999999757856,3,test
02,7133,bas,8,right,4,true,415.4000000017695,3,test
02,7152,neg,8,right,4,true,375.4000000008382,3,test
02,7171,bas,2,right,4,true,370.5000000009313,3,test
02,7190,neu,2,right,4,true,330.60000000102445,3,test
02,7209,neg,8,left,4,true,362.7999999988824,0,test
02,7228,neu,8,left,4,true,405.30000000214204,0,test
02,7247,neg,8,left,6,true,402.50000000046566,0,test
02,7266,bas,8,right,6,true,379.0999999982305,3,test
02,7285,bas,2,left,6,true,324.7999999988824,0,test
02,7304,neg,8,left,6,true,343.80000000214204,0,test
02,7323,neu,8,left,6,true,375.4000000008382,0,test
02,7342,bas,8,right,4,true,363.7999999993481,3,test
02,7361,bas,8,left,4,true,409.2999999993481,0,test
02,7380,neg,2,right,6,true,368.8000000002794,3,test
02,7399,neg,8,left,6,true,456.6000000014901,0,test
02,7418,neu,2,left,6,true,377.59999999962747,0,test
02,7437,neu,8,right,6,true,350.3999999994412,3,test
02,7456,neg,8,left,4,true,333.6000000019558,0,test
02,7475,neu,8,left,6,true,350.3999999994412,0,test
02,7494,neg,2,right,6,false,335.2000000011176,1,test
02,7532,neu,8,right,6,true,311.3000000012107,3,test
02,7551,neu,8,left,6,true,304.29999999981374,0,test
02,7570,bas,2,left,4,true,340,0,test
02,7589,bas,8,right,6,true,232,3,test
02,7608,bas,8,right,6,true,224.30000000167638,3,test
02,7646,bas,2,right,6,true,320.10000000102445,3,test
02,7665,bas,8,left,6,true,380.0999999982305,1,test
02,7703,neu,2,right,4,true,349.0999999991618,3,test
02,7722,neg,8,right,4,true,240.00000000186265,3,test
02,7742,bas,8,right,6,true,637.9999999990687,3,test
02,7761,neu,8,right,6,true,435.7999999993481,3,test
02,7780,bas,8,left,6,true,373.40000000037253,0,test
02,7799,neu,2,right,4,true,370.69999999925494,3,test
02,7818,bas,2,right,4,true,361.30000000074506,3,test
02,7837,neg,2,left,4,true,361.60000000009313,0,test
02,7856,bas,2,left,4,true,447.499999998603,0,test
02,7875,neg,8,left,4,true,476.69999999925494,0,test
02,7894,bas,2,left,6,true,349.3000000016764,0,test
02,7913,neu,2,right,6,true,325.0999999982305,3,test
02,7932,bas,2,left,4,true,356.2999999993481,0,test
02,7951,neu,2,right,4,false,298.39999999990687,0,test
02,7970,neu,2,left,6,true,394.40000000130385,0,test
02,7989,neu,8,right,6,true,406.5000000009313,3,test
02,8008,bas,8,right,4,true,568.8000000007451,3,test
02,8027,bas,2,left,6,true,410.10000000102445,0,test
02,8046,bas,2,right,4,true,368.6999999987893,3,test
02,8065,neg,2,left,6,true,394.3999999971129,1,test
02,8084,neg,8,left,6,true,356.5999999991618,0,test
02,8103,neg,8,right,4,true,363.99999999813735,3,test
02,8122,bas,2,left,4,true,431.00000000046566,0,test
02,8141,bas,8,left,6,true,387.49999999720603,0,test
02,8160,neg,8,right,4,true,366.5,3,test
02,8179,neg,8,left,6,true,335.49999999720603,0,test
02,8198,neg,2,left,4,true,590.4000000008382,0,test
02,8236,bas,2,right,6,true,382.70000000158325,3,test
02,8255,neg,8,left,4,true,351.9000000017695,0,test
02,8274,bas,8,right,6,true,335.99999999953434,3,test
02,8293,bas,8,left,6,true,426.99999999953434,0,test
02,8312,bas,2,left,6,true,318.19999999785796,0,test
02,8350,neg,8,right,6,true,371.5000000009313,3,test
02,8369,bas,8,right,6,true,352.99999999953434,3,test
02,8388,neg,8,left,4,true,643.7999999979511,0,test
02,8426,neu,8,right,4,true,270.60000000009313,3,test
02,8445,neu,2,left,6,true,402.9000000008382,0,test
02,8464,neu,2,left,4,true,321.89999999897555,0,test
02,8483,neu,8,right,6,true,274.3999999985099,3,test
02,8502,neg,8,right,6,true,275.20000000018626,3,test
02,8540,neu,8,left,6,true,326.3000000002794,0,test
02,8559,neu,2,right,6,true,394.3000000002794,3,test
02,8578,neu,8,right,4,true,5814.699999998789,3,test
02,8597,neg,2,right,4,true,326.0000000009313,3,test
02,8635,neu,2,left,4,true,363.7999999993481,0,test
02,8654,bas,8,left,6,true,314.6000000014901,0,test
02,8673,neg,8,right,6,true,406.9000000017695,3,test
02,8692,neg,8,right,6,true,492.50000000046566,3,test
02,8711,neu,2,left,4,true,431.40000000130385,0,test
02,8730,bas,2,right,4,true,378.0999999977648,3,test
02,8768,neg,2,right,4,false,319.3000000026077,2,test
02,8787,bas,8,left,4,true,376.59999999962747,0,test
02,8806,bas,2,right,6,true,390.60000000242144,3,test
02,8825,neg,2,right,4,true,375.50000000186265,3,test
02,8844,neg,2,right,6,true,328.60000000102445,3,test
02,8863,bas,2,left,4,true,390.99999999953434,0,test
02,8882,bas,2,right,4,true,365.7999999993481,3,test
02,8901,bas,2,left,6,true,366.5,0,test
02,8920,neu,2,right,4,false,340.89999999897555,0,test
02,8939,neu,8,left,4,true,356.29999999981374,0,test
02,8958,neg,2,left,4,true,324.7999999988824,0,test
02,8977,bas,2,right,6,true,323.8000000016764,3,test
02,8996,neu,2,left,6,true,332.9000000008382,0,test
02,9015,neg,8,left,6,true,405.9999999990687,0,test
02,9034,neg,8,left,6,true,372.8000000012107,0,test
02,9053,neu,8,right,6,true,354.6999999997206,3,test
02,9072,neg,8,left,4,true,286.70000000018626,0,test
02,9091,bas,8,right,4,true,417.30000000074506,3,test
02,9110,bas,8,left,4,true,326.4999999990687,0,test
02,9129,neu,2,left,6,false,287.29999999981374,2,test
02,9167,neg,2,right,6,true,312.39999999897555,3,test
02,9186,neg,2,right,6,true,276.2999999979511,3,test
02,9205,bas,2,right,4,true,319.70000000018626,3,test
02,9224,neu,2,right,4,true,276.5999999977648,3,test
02,9243,neu,2,left,4,true,427.5999999991618,0,test
02,9262,neu,8,right,4,false,292.1999999997206,0,test
02,9281,neg,2,right,6,true,328.10000000242144,3,test
02,9300,neg,8,left,4,true,351.30000000214204,0,test
02,9338,neg,2,left,6,true,345.69999999785796,0,test
02,9357,bas,8,right,4,true,262.29999999841675,3,test
02,9376,bas,8,left,6,true,353.6999999997206,0,test
02,9395,bas,8,right,6,true,291.4999999990687,3,test
02,9414,bas,8,left,4,true,361.7000000011176,0,test
02,9433,neu,2,left,6,true,338.50000000186265,0,test
02,9452,neg,2,right,6,false,390.500000001397,0,test
02,9471,neu,8,left,4,true,330.59999999729916,0,test
02,9490,neu,8,left,4,true,324.40000000130385,0,test
02,9509,neu,8,left,6,true,365.5,0,test
02,9528,neu,8,left,6,true,338.79999999748543,0,test
02,9547,neg,8,right,4,true,108.70000000065193,3,test
02,9566,bas,2,right,6,true,683.6000000000931,3,test
02,9585,neg,2,left,6,true,373.70000000018626,1,test
02,9604,bas,2,right,6,true,346.29999999748543,3,test
02,9623,neg,2,left,4,true,342.499999998603,0,test
02,9642,neu,2,right,6,true,397.4000000017695,3,test
02,9661,neu,2,right,6,false,487.30000000074506,5,test
02,9680,bas,8,left,4,true,361.60000000009313,0,test
02,9718,neu,2,right,4,true,311.9999999976717,3,test
02,9737,neu,8,left,6,true,459.99999999953434,0,test
02,9756,neg,2,left,6,true,386.4000000031665,0,test
02,9775,neu,8,right,4,true,441.10000000009313,3,test
02,9794,neu,2,left,4,true,358.499999998603,0,test
02,9813,neg,8,right,4,true,316.2000000011176,3,test
02,9832,neu,8,right,6,true,373.09999999729916,3,test
02,9851,bas,8,right,4,true,303.40000000037253,3,test
02,9870,neg,2,right,4,false,346.3999999985099,2,test
02,9889,neg,8,right,4,true,344.0999999982305,3,test
02,9908,neu,8,right,4,true,318.4999999976717,3,test
02,9927,neg,8,right,6,true,258.5,3,test
02,9946,bas,8,left,4,true,302.8000000012107,0,test
02,9965,neu,8,left,6,true,568.4000000003725,0,test
02,9984,neg,2,left,4,false,351.5000000009313,2,test
02,10003,neg,8,left,6,true,317.80000000074506,0,test
02,10022,neg,2,right,4,false,598.3999999989755,2,test
02,10041,bas,2,left,4,true,338.00000000325963,0,test
02,10079,neu,2,right,6,true,381.0000000009313,3,test
02,10098,bas,8,right,4,true,330.5,3,test
02,10117,bas,8,right,6,true,366.09999999962747,3,test
02,10136,neu,8,left,4,true,356.7999999979511,0,test
02,10155,neu,8,left,4,true,407.9000000022352,0,test
02,10174,bas,2,left,6,true,405.5999999982305,0,test
02,10193,neg,2,left,6,true,414.20000000251457,1,test
02,10232,neg,8,left,6,true,422.8000000002794,0,test
02,10251,bas,8,left,6,true,427.49999999813735,0,test
02,10270,bas,2,left,6,true,371.9000000022352,0,test
02,10289,neg,2,right,6,false,335.6999999997206,2,test
02,10308,bas,8,left,6,true,462.5999999991618,0,test
02,10327,neg,8,right,6,true,415.4999999990687,3,test
02,10346,neu,8,right,6,true,586.3000000026077,3,test
02,10365,bas,8,right,4,true,350.8000000002794,3,test
02,10384,neg,8,left,4,true,452.4999999990687,0,test
02,10422,neu,2,right,4,true,236.0999999982305,3,test
02,10441,bas,2,right,6,true,299.80000000074506,3,test
02,10460,neu,8,left,6,true,305.7000000011176,0,test
02,10479,neu,2,left,6,true,329.60000000102445,1,test
02,10498,bas,2,left,6,true,378.7000000011176,0,test
02,10536,neu,8,right,6,true,345.90000000037253,3,test
02,10574,neg,2,left,6,false,729.1000000000931,5,test
02,10593,neu,8,left,4,true,414.7000000011176,1,test
02,10612,neu,2,left,6,false,346.90000000037253,2,test
02,10631,neg,2,right,4,true,576.0000000009313,3,test
02,10650,neu,8,right,4,true,330.3000000012107,3,test
02,10669,bas,2,left,4,true,450.50000000279397,0,test
02,10707,neu,8,right,4,true,406.6999999997206,3,test
02,10726,neg,8,right,4,true,317.6999999997206,3,test
02,10745,bas,8,left,6,true,350.8000000002794,0,test
02,10764,bas,8,right,6,true,398.7999999988824,3,test
02,10783,neu,2,left,4,true,367.5,0,test
02,10802,neg,2,left,6,true,329.6999999983236,0,test
02,10821,neg,8,right,6,true,374.59999999962747,3,test
02,10840,neg,8,right,6,true,303.1999999983236,3,test
02,10859,bas,2,right,4,true,321.5999999991618,3,test
02,10878,neu,2,right,6,true,205.50000000046566,3,test
02,10897,bas,2,right,4,true,382.000000001397,3,test
02,10916,bas,8,right,4,true,306.7000000011176,3,test
02,10935,bas,2,left,4,true,357.7000000006519,0,test
02,10954,bas,2,left,6,true,176.19999999832362,0,test
02,10973,neg,2,right,6,true,296.0999999991618,3,test
02,10992,bas,2,right,6,true,253.59999999962747,3,test
02,11011,neg,8,left,4,true,326.4999999990687,0,test
02,11030,bas,8,left,4,true,370.4999999976717,0,test
02,11049,bas,8,right,6,true,294.6999999983236,3,test
02,11068,neu,8,right,4,true,329.7000000020489,3,test
02,11087,neg,2,left,4,true,333.5999999982305,0,test
02,11106,neu,8,left,6,true,366.20000000018626,0,test
02,11125,bas,2,left,6,true,349.39999999897555,0,test
02,11144,neu,2,right,4,true,314.50000000046566,3,test
02,11163,bas,2,left,6,true,341.40000000130385,0,test
02,11182,bas,8,left,6,false,578.4999999995343,5,test
02,11201,neu,8,right,4,true,338.50000000186265,3,test
02,11220,neu,2,right,4,false,607.5999999991618,2,test
02,11239,neg,2,right,6,false,381.1999999997206,2,test
02,11277,bas,2,right,6,true,310.59999999729916,3,test
02,11296,neg,8,left,4,true,516.7000000001863,0,test
02,11315,neu,2,right,4,true,313.09999999962747,3,test
02,11334,neg,8,right,6,true,385.60000000102445,3,test
02,11372,bas,8,left,4,true,310.90000000037253,0,test
02,11391,neg,2,right,4,false,1619.1000000000931,2,test
02,11410,neg,8,left,6,true,436.9000000008382,0,test
02,11429,neu,8,right,6,true,281.79999999701977,3,test
02,11467,neu,8,right,4,true,367.999999998603,3,test
02,11486,bas,2,right,4,true,362.30000000074506,3,test
02,11505,neu,2,left,6,true,341.7000000006519,0,test
02,11524,neg,2,left,6,false,614.3999999985099,3,test
02,11543,bas,8,left,6,true,410.5999999991618,0,test
02,11562,neg,8,left,6,true,332.2000000006519,0,test
02,11581,neu,2,right,6,true,351.3999999994412,3,test
02,11600,neu,8,left,6,true,398.10000000242144,0,test
02,11619,neu,8,left,4,true,278.2999999979511,0,test
02,11638,bas,8,left,4,true,278.5999999982305,0,test
02,11657,neu,8,left,6,true,273.9999999976717,0,test
02,11676,bas,8,right,6,true,504.90000000037253,3,test
02,11695,neg,8,right,4,true,307.4999999990687,3,test
02,11714,bas,2,right,6,true,289.5000000023283,3,test
02,11752,neg,8,right,6,true,264.9000000017695,4,test
02,11771,neg,2,left,4,true,440.6000000019558,0,test
02,11790,neu,8,left,4,true,421.89999999757856,0,test
02,11809,neu,2,right,4,true,310.1999999997206,4,test
02,11828,bas,2,left,4,true,282.99999999953434,0,test
02,11847,bas,2,left,4,true,322.39999999757856,0,test
02,11866,neu,8,left,6,true,296.90000000130385,0,test
02,11885,neu,8,right,6,true,364.3999999985099,3,test
02,11904,bas,2,right,4,true,381.7999999988824,3,test
02,11942,neg,2,left,4,true,350.6000000014901,1,test
02,11961,neu,2,left,6,true,321.8000000012107,0,test
02,11980,neu,2,right,6,true,310.49999999953434,3,test
02,11999,neu,2,right,6,true,319.4999999976717,3,test
02,12018,neg,2,right,6,true,373.6000000028871,3,test
02,12037,bas,8,left,4,true,342.40000000130385,0,test
02,12056,bas,2,left,4,true,473.59999999729916,0,test
02,12075,bas,2,right,6,true,369.90000000130385,3,test
02,12094,neg,2,left,4,false,308.6000000005588,2,test
02,12113,neg,8,left,4,true,377.7000000006519,0,test
02,12132,neu,2,right,6,true,338.5999999991618,3,test
02,12151,neg,8,left,6,true,310.60000000102445,0,test
02,12170,neu,2,left,4,true,322.5999999991618,1,test
02,12189,bas,8,right,6,true,374.7999999979511,3,test
02,12208,neu,8,left,4,true,351.89999999757856,0,test
02,12227,neg,2,right,4,true,266.90000000270084,4,test
02,12246,bas,8,right,4,true,374.2000000020489,3,test
02,12265,neg,2,left,6,true,353.10000000009313,0,test
02,12284,neg,8,left,6,true,356,0,test
02,12303,neg,2,left,6,false,462.1000000005588,2,test
02,12322,bas,8,left,4,true,357.50000000186265,0,test
02,12341,bas,8,right,6,true,300.99999999953434,3,test
02,12360,neu,8,left,4,true,362.6000000005588,0,test
02,12379,neg,8,right,4,true,293.5000000037253,3,test
02,12398,neg,8,right,4,true,326.49999999953434,3,test
02,12417,neu,2,left,6,true,361.60000000009313,0,test
02,12436,neu,2,left,4,true,386.09999999962747,0,test
02,12455,bas,8,right,4,true,381.29999999748543,3,test
02,12474,bas,2,right,4,true,334.09999999636784,3,test
02,12493,neu,2,left,4,true,332.0000000023283,1,test
02,12512,neg,2,right,4,true,193.50000000139698,3,test
02,12531,neg,8,left,4,true,309.90000000037253,0,test
02,12550,neu,2,left,4,true,352.69999999925494,0,test
02,12569,neg,2,right,6,false,530.499999997206,2,test
02,12588,neg,2,left,4,true,433.3000000002794,0,test
02,12607,neg,2,right,4,true,360.60000000009313,3,test
02,12626,neg,8,right,4,true,4454.3999999989755,3,test
02,12645,bas,8,right,4,true,719.1999999992549,3,test
02,12664,neu,8,right,6,true,346.60000000102445,3,test
03,367,neu,8,left,6,true,1251.799999998184,0,test
03,386,neg,2,right,6,true,1063.6999999987893,3,test
03,405,neg,8,left,4,true,1686.099999998929,0,test
03,424,neg,2,right,4,true,6292.89999999688,4,test
03,443,neu,8,left,6,true,1377.8999999994412,0,test
03,462,neu,2,right,6,true,870.499999997206,3,test
03,481,neg,2,right,4,false,1583.3999999994412,5,test
03,500,bas,8,right,4,false,1122.4000000003725,1,test
03,519,neg,8,left,6,false,6623.199999998091,2,test
03,538,neu,2,left,6,false,980.1999999980908,5,test
03,557,bas,2,right,4,true,829.6999999983236,3,test
03,576,bas,8,left,4,true,1045.200000000419,0,test
03,595,bas,8,right,6,true,1967.0999999979977,3,test
03,614,bas,2,right,6,true,455.1000000028871,4,test
03,633,neg,2,left,4,false,632.7999999993481,4,test
03,652,bas,2,left,4,true,1446.700000000419,1,test
03,671,neg,8,right,4,false,1819.800000000978,5,test
03,690,neu,2,left,6,true,775.6000000007916,1,test
03,709,neu,2,left,4,false,10293.499999999767,2,test
03,728,neu,8,left,4,true,1158.4999999976717,0,test
03,747,neg,2,right,6,false,678.3999999971129,5,test
03,766,neu,2,left,4,true,998.500000001397,0,test
03,785,bas,2,right,6,true,902.999999998603,3,test
03,804,bas,2,right,6,true,1054.5999999993946,3,test
03,823,neu,2,right,6,true,942.0999999966007,3,test
03,842,neu,8,right,4,false,658.9999999995343,2,test
03,861,neg,2,left,4,true,749.8999999987427,0,test
03,880,neu,2,left,4,false,618.3000000019092,4,test
03,899,neu,2,left,6,true,716.7999999984168,0,test
03,918,neu,8,right,6,false,1001.3000000000466,5,test
03,956,bas,2,left,4,true,1001.4999999983702,0,test
03,994,bas,2,left,4,true,974.2000000006519,0,test
03,1013,neg,8,right,4,true,827.4000000020023,3,test
03,1032,bas,8,left,4,true,757.7999999993481,0,test
03,1051,bas,2,right,4,false,573.0000000002328,5,test
03,1070,neg,8,left,6,false,1400.099999998929,2,test
03,1089,bas,2,left,4,true,749.8999999987427,0,test
03,1108,bas,2,right,4,true,683.7000000013504,3,test
03,1127,neg,2,left,6,true,1165.8000000023749,1,test
03,1146,neg,2,left,6,true,519.0000000002328,1,test
03,1165,neu,8,left,4,true,825.7999999986496,1,test
03,1184,bas,2,right,4,false,525.9999999979045,1,test
03,1203,neg,8,right,6,true,798.9999999990687,3,test
03,1222,neg,2,right,6,true,1575.4000000015367,4,test
03,1241,neu,2,right,4,false,4473.599999997532,2,test
03,1260,neg,2,left,4,true,842.0999999979977,1,test
03,1298,neg,8,right,4,true,899.4000000022352,3,test
03,1317,bas,2,left,4,true,546.6999999987893,0,test
03,1336,neg,8,left,4,true,1092.0000000006985,1,test
03,1355,neg,2,right,4,true,781.100000000326,3,test
03,1374,neu,8,right,6,false,2608.1999999987893,5,test
03,1393,neg,2,right,4,false,674.1000000000931,5,test
03,1412,neu,2,right,6,false,8959.800000000512,2,test
03,1431,neu,8,right,6,true,1510.8000000000466,3,test
03,1450,neg,2,right,6,false,674.8000000007451,0,test
03,1469,bas,2,left,6,false,530.8000000002794,5,test
03,1488,neg,2,left,6,false,839.8999999989755,2,test
03,1507,neg,8,left,6,true,982.5000000018626,0,test
03,1545,neg,8,left,6,false,1241.3000000014435,5,test
03,1564,neu,2,right,4,true,798.2000000011176,3,test
03,1583,neu,2,left,6,true,3437.6000000012573,0,test
03,1602,bas,8,left,6,true,1660.1000000010245,0,test
03,1621,bas,2,left,6,true,1111.7000000013504,0,test
03,1640,bas,8,right,4,true,1177.299999999348,3,test
03,1659,bas,8,left,6,true,1750.5999999993946,0,test
03,1678,neg,8,left,6,true,711.5000000011642,0,test
03,1697,neg,8,left,4,true,1313.5999999977648,0,test
03,1716,neu,8,left,6,true,811.2999999974854,0,test
03,1735,neu,8,left,4,true,1044.400000002468,0,test
03,1754,neu,8,left,6,true,1021.6999999976251,0,test
03,1773,neu,2,right,4,true,955.6999999987893,3,test
03,1792,bas,2,right,6,true,1160.700000000419,3,test
03,1830,bas,8,left,4,false,1801.2000000015832,4,test
03,1849,neu,8,right,4,false,1422.2000000008848,2,test
03,1868,neg,2,right,6,false,1042.6000000007916,2,test
03,1887,neu,8,left,6,true,677.9000000022352,0,test
03,1906,neu,2,left,4,false,1697,5,test
03,1925,neg,2,left,6,false,667.9000000003725,2,test
03,1944,bas,8,right,6,true,901.0999999991618,3,test
03,1982,neg,8,right,6,false,767.7000000001863,2,test
03,2001,neu,2,right,4,true,644.2999999998137,3,test
03,2020,neu,8,right,4,false,638.1000000000931,5,test
03,2039,neu,8,left,4,true,804.5999999993946,0,test
03,2058,neu,2,right,6,false,2708.999999998836,5,test
03,2077,neu,8,left,4,true,1201.4999999993015,0,test
03,2115,neg,2,left,6,true,858.2000000025146,0,test
03,2153,neg,8,left,4,true,648.2000000032131,0,test
03,2172,bas,8,left,4,true,1124.5999999991618,0,test
03,2191,bas,2,right,6,true,691.7000000032131,3,test
03,2210,neg,8,right,4,true,1063.6999999987893,3,test
03,2229,bas,2,left,6,true,954.3000000012107,0,test
03,2248,neg,8,right,6,true,763.4999999974389,3,test
03,2267,bas,8,right,6,false,582.2999999981839,2,test
03,2286,neu,2,right,4,true,1461.8999999985099,3,test
03,2305,bas,8,left,6,true,682.8000000023749,0,test
03,2324,bas,8,right,4,true,639.6000000021886,3,test
03,2343,bas,8,right,6,true,471.3999999985099,3,test
03,2362,bas,2,right,4,true,844.0000000009313,3,test
03,2381,neu,8,right,6,true,656.9999999993015,3,test
03,2400,neg,2,left,4,true,496.6000000021886,0,test
03,2419,neu,8,right,6,true,658.4000000003725,3,test
03,2438,neg,2,right,4,true,772.4999999990687,3,test
03,2457,bas,8,right,4,true,487.7000000011176,3,test
03,2476,bas,2,left,6,true,634.6999999987893,0,test
03,2495,neu,8,right,4,false,1453.3000000012107,5,test
03,2514,bas,8,left,6,true,467.7000000011176,0,test
03,2533,neu,8,right,4,false,413.8999999994412,2,test
03,2552,bas,8,right,4,true,767.4000000008382,3,test
03,2571,neg,8,right,4,false,412.7000000011176,5,test
03,2590,bas,8,left,6,true,642.4999999981374,0,test
03,2609,neu,2,left,4,true,651.9000000008382,0,test
03,2628,bas,2,left,6,true,466.59999999962747,0,test
03,2647,neu,2,left,6,true,482.8000000016764,0,test
03,2666,neg,2,left,4,false,1093.4999999990687,5,test
03,2685,neg,8,left,4,true,471.9000000008382,0,test
03,2704,neu,2,right,6,true,960.1000000000931,3,test
03,2723,neg,8,right,6,true,590.2999999998137,3,test
03,2742,neg,8,right,6,true,496.8999999980442,3,test
03,2761,bas,8,right,6,true,470.80000000307336,3,test
03,2780,bas,8,left,4,true,554.5999999996275,0,test
03,2800,bas,8,right,4,true,1023.8999999999069,3,test
03,2819,bas,8,left,4,true,513.6999999992549,0,test
03,2838,bas,8,right,4,true,698.2999999998137,3,test
03,2857,bas,8,right,6,true,448.40000000130385,3,test
03,2876,neg,8,right,4,false,484.40000000130385,5,test
03,2895,neg,8,left,6,true,632.5,0,test
03,2914,neu,2,left,4,false,507.59999999729916,2,test
03,2933,neu,8,left,6,true,582.3999999994412,0,test
03,2952,neg,8,right,4,true,610.7000000011176,3,test
03,2971,neg,8,left,6,true,638.8000000007451,0,test
03,2990,neu,8,right,6,true,461.5000000009313,3,test
03,3009,neu,8,left,6,true,693.2000000015832,0,test
03,3028,bas,2,left,4,true,597.7000000020489,0,test
03,3047,bas,2,right,6,true,497.99999999953434,3,test
03,3066,neu,2,right,4,false,623.2999999993481,0,test
03,3085,neg,2,left,6,true,651.6999999983236,0,test
03,3104,neu,8,left,4,true,727.6000000019558,0,test
03,3123,neg,2,left,4,true,618.9999999990687,0,test
03,3142,neu,2,left,4,true,648.7000000015832,0,test
03,3161,neu,2,left,6,true,572.5999999996275,0,test
03,3180,bas,8,left,4,true,625.4999999981374,0,test
03,3199,neu,2,left,6,true,648.6000000005588,0,test
03,3237,neg,8,left,4,true,634.9000000008382,0,test
03,3256,neg,8,left,4,true,956.5999999977648,0,test
03,3275,neu,2,left,4,true,497.70000000018626,0,test
03,3294,neu,8,left,6,true,534.5000000018626,0,test
03,3313,neg,8,right,6,true,651.9999999981374,4,test
03,3332,neu,2,right,6,true,392.89999999897555,3,test
03,3351,bas,8,right,6,true,798.6999999992549,4,test
03,3370,neu,2,left,4,false,500.89999999897555,2,test
03,3389,bas,8,right,4,false,437.99999999813735,5,test
03,3408,neu,8,right,4,false,2340.5999999996275,5,test
03,3427,bas,2,left,6,true,613.7000000015832,0,test
03,3446,neg,2,right,4,false,886.5000000004657,2,test
03,3465,neu,2,right,4,false,452.9999999976717,2,test
03,3484,bas,2,left,4,true,3572.8999999989755,0,test
03,3503,neg,8,left,6,true,1616.5,0,test
03,3541,neg,2,right,6,true,2147.4000000017695,4,test
03,3560,bas,2,right,6,true,405.80000000074506,4,test
03,3579,neg,2,left,4,false,546.3999999989755,2,test
03,3598,bas,2,right,4,false,558.0000000009313,2,test
03,3617,neg,2,right,6,false,513.000000002794,5,test
03,3636,neu,8,right,4,true,447.89999999897555,4,test
03,3655,neg,8,right,6,false,1836.800000000745,2,test
03,3674,neg,2,left,6,true,734.8999999994412,1,test
03,3693,bas,8,right,6,true,644.2000000025146,3,test
03,3712,bas,2,left,4,true,1273.000000001397,0,test
03,3731,neg,8,right,4,true,621.500000001397,3,test
03,3769,neg,2,left,6,false,1094.7000000011176,2,test
03,3788,bas,2,left,6,true,1284.0999999972992,0,test
03,3807,neu,2,left,4,true,720.4999999995343,0,test
03,3826,bas,2,left,6,true,558.8000000026077,0,test
03,3845,neg,8,left,6,false,454.7000000020489,2,test
03,3864,bas,8,left,6,true,574.0000000004657,0,test
03,3883,bas,8,right,6,true,434.49999999953434,3,test
03,3902,neg,2,right,6,true,630.4000000017695,3,test
03,3921,neg,2,right,4,true,586.2000000015832,3,test
03,3940,neg,8,left,6,false,2302.8000000016764,2,test
03,3959,neg,2,left,4,false,511.5999999982305,3,test
03,3997,neg,2,right,6,true,971.7000000015832,3,test
03,4016,bas,2,left,6,true,783.9999999995343,0,test
03,4035,neg,2,left,6,false,6413,2,test
03,4054,bas,8,right,4,true,1072.4000000008382,3,test
03,4073,neu,8,left,4,true,539.0000000009313,0,test
03,4092,neu,8,left,6,true,799.7999999970198,0,test
03,4111,bas,2,right,6,false,524.3000000007451,0,test
03,4130,neu,8,left,4,true,691.6999999992549,0,test
03,4149,neu,8,right,6,false,756.7999999993481,5,test
03,4168,bas,8,left,6,false,646.0000000004657,4,test
03,4187,neg,8,right,6,true,826.0000000009313,4,test
03,4206,neg,2,left,4,true,507.1999999997206,0,test
03,4225,bas,8,left,4,true,423.6000000019558,0,test
03,4244,bas,8,left,6,true,696.7000000006519,0,test
03,4263,neg,2,right,6,true,1271.8999999999069,4,test
03,4282,neu,2,right,6,false,1194.6999999997206,1,test
03,4301,bas,2,right,6,true,919.1000000028871,4,test
03,4320,neu,8,left,6,true,426.500000001397,1,test
03,4339,neg,2,right,4,true,1053,4,test
03,4358,neg,2,left,4,false,3239.300000000745,2,test
03,4377,bas,2,left,4,true,924.3999999999069,0,test
03,4415,neu,8,right,4,true,506.6000000005588,3,test
03,4434,neu,8,right,4,true,1072.6999999969266,4,test
03,4453,neu,2,right,6,true,755.0000000009313,3,test
03,4472,neu,8,right,4,true,1100.699999999255,4,test
03,4491,neg,8,right,6,true,470.89999999990687,4,test
03,4510,bas,2,right,4,true,426.79999999748543,4,test
03,4548,neg,8,right,6,false,669.2000000001863,5,test
03,4567,neg,8,left,4,false,930.2000000025146,2,test
03,4586,neu,8,left,4,false,1651.0000000018626,2,test
03,4624,neu,2,left,6,false,681.1000000014901,2,test
03,4643,bas,8,left,4,true,648.1000000024214,0,test
03,4681,bas,2,right,6,true,1014.1000000005588,4,test
03,4700,bas,8,right,4,true,1418.0000000018626,4,test
03,4719,bas,8,left,6,true,581.5000000004657,0,test
03,4738,neu,2,right,4,true,696.0999999977648,3,test
03,4776,neu,2,right,4,true,414.7000000011176,3,test
03,4795,bas,2,right,4,true,630.000000001397,3,test
03,4814,neg,8,left,4,true,596.0999999991618,1,test
03,4833,neg,8,left,4,true,422.9999999990687,1,test
03,4852,bas,2,right,4,false,1376.799999997951,2,test
03,4871,neu,8,right,6,true,1999.7999999974854,4,test
03,4909,neu,8,left,4,true,2135.900000000838,0,test
03,4928,bas,8,right,6,false,435.3000000012107,5,test
03,4947,neg,2,right,4,false,477.5000000009313,5,test
03,4966,neg,8,right,4,true,646.8999999999069,3,test
03,4985,neu,2,right,6,true,432.1000000014901,3,test
03,5004,neu,2,left,6,false,665.699999997858,2,test
03,5023,neu,8,right,6,true,1739.0999999991618,4,test
03,5042,neu,2,right,6,false,804.1999999987893,2,test
03,5061,neu,8,right,6,true,601.000000002794,3,test
03,5080,bas,8,left,4,true,3174.9999999995343,0,test
03,5099,neg,8,right,4,false,1054.499999998603,5,test
03,5118,neg,2,left,6,false,424.2000000011176,2,test
03,5137,bas,2,right,4,true,2696.8000000016764,4,test
03,5156,bas,2,left,4,true,730.2999999993481,1,test
03,5175,neg,2,right,4,true,714.1000000010245,4,test
03,5194,bas,2,left,6,true,731.1000000005588,1,test
03,5213,neu,2,right,4,false,650.4000000022352,2,test
03,5232,neu,2,left,6,true,897.8999999999069,0,test
03,5251,bas,8,left,6,true,1134.7999999998137,1,test
03,5271,bas,8,right,6,true,1240.5999999972992,3,test
03,5290,neu,2,left,4,false,654.8000000002794,2,test
03,5309,neg,2,right,6,false,636.8999999980442,5,test
03,5328,bas,2,left,6,true,958.5999999982305,0,test
03,5347,neu,2,left,6,true,417.7999999988824,0,test
03,5366,bas,2,left,6,true,592.7999999984168,0,test
03,5385,neu,8,right,4,false,691.0999999996275,5,test
03,5404,bas,2,left,6,true,914.3000000002794,1,test
03,5442,neg,8,left,6,true,423.6000000019558,1,test
03,5461,bas,8,left,4,false,656.3999999999069,2,test
03,5480,neu,8,left,4,false,410,2,test
03,5499,neu,2,left,4,true,1469.200000003446,0,test
03,5518,neg,8,right,6,true,590.5999999996275,3,test
03,5537,bas,2,left,4,true,678.7000000001863,0,test
03,5556,neg,8,right,4,true,1682.199999999255,4,test
03,5575,neu,8,left,6,true,446.1999999987893,1,test
03,5594,neg,2,right,6,true,1543.2000000001863,4,test
03,5613,neg,2,right,4,false,3505.899999999907,2,test
03,5632,neu,8,right,6,true,407.5000000009313,3,test
03,5651,bas,2,right,4,false,580.000000001397,5,test
03,5670,neg,8,left,6,true,1110.8999999994412,1,test
03,5689,neu,2,left,6,true,660.7000000006519,1,test
03,5708,bas,2,right,6,true,1069.8999999985099,4,test
03,5727,neu,8,left,6,true,1936.0999999991618,1,test
03,5746,neg,8,right,6,true,585.5999999982305,3,test
03,5765,neu,8,right,4,false,771.8999999999069,2,test
03,5784,neu,8,right,4,true,2067.399999999907,4,test
03,5803,bas,8,right,4,true,498.8000000012107,4,test
03,5822,neu,8,left,6,true,732.8999999989755,0,test
03,5860,neu,2,right,4,true,2251,3,test
03,5879,neg,2,right,4,true,1087.9000000022352,4,test
03,5898,neu,8,right,6,true,694.6999999997206,4,test
03,5936,neg,8,left,6,true,892.2999999993481,0,test
03,5955,bas,2,right,4,true,750.5999999996275,3,test
03,5974,neg,8,left,6,true,432.3000000002794,0,test
03,5993,neu,2,left,6,false,1379.199999999255,2,test
03,6012,bas,8,right,6,true,401.7999999993481,3,test
03,6031,neu,2,right,6,true,894.7000000006519,3,test
03,6050,neg,8,right,4,true,874.5999999991618,3,test
03,6069,neu,2,right,6,true,713.1000000005588,3,test
03,6088,neg,2,left,6,true,448.59999999962747,0,test
03,6107,bas,2,left,4,false,1354.6000000024214,2,test
03,6126,neu,8,left,6,true,1714.2999999998137,0,test
03,6164,bas,2,left,6,false,575.7999999984168,5,test
03,6183,bas,2,right,6,false,529.5000000004657,2,test
03,6202,bas,2,right,6,false,855.1000000010245,5,test
03,6221,neg,8,left,4,true,851.0000000023283,0,test
03,6240,bas,8,right,4,false,1652.100000002887,2,test
03,6259,neg,2,left,4,true,876.3999999971129,0,test
03,6278,neu,2,left,6,true,551.6000000024214,0,test
03,6297,neg,2,right,4,false,414.80000000214204,2,test
03,6316,neu,2,right,4,true,647.3000000007451,3,test
03,6335,bas,2,left,6,true,494.70000000298023,0,test
03,6354,bas,8,left,6,true,480.2999999993481,0,test
03,6373,bas,8,left,6,false,1613.1999999997206,2,test
03,6392,bas,8,left,6,true,607.7999999979511,0,test
03,6411,bas,2,right,6,true,625.1000000010245,3,test
03,6449,neg,2,left,6,true,604.4000000003725,0,test
03,6468,neu,8,left,4,true,438.90000000130385,0,test
03,6487,bas,2,right,4,true,697.5000000023283,3,test
03,6506,neu,2,right,4,false,670.9999999981374,2,test
03,6544,neu,2,right,6,true,1078.2999999974854,4,test
03,6563,bas,2,left,4,true,489.1999999997206,0,test
03,6582,bas,2,left,4,true,656.5000000009313,1,test
03,6601,neu,2,right,4,false,921.2999999979511,2,test
03,6620,neg,2,right,6,true,622.7000000001863,3,test
03,6639,neg,8,right,4,true,380.09999999869615,3,test
03,6658,neu,8,right,6,true,1054.2000000025146,4,test
03,6677,neg,2,right,4,true,532.7000000001863,4,test
03,6696,bas,8,left,4,true,610.7000000011176,0,test
03,6715,neg,8,left,6,true,441.69999999925494,0,test
03,6734,bas,8,left,4,true,1513.4999999976717,1,test
03,6753,neu,8,right,4,true,624,3,test
03,6772,bas,8,left,4,true,685.000000001397,0,test
03,6791,neg,8,left,4,true,408.1000000005588,1,test
03,6810,neg,8,right,6,true,590.7000000011176,3,test
03,6829,neu,8,left,4,true,415.0000000009313,0,test
03,6848,bas,8,right,6,false,1365.9000000008382,2,test
03,6867,neg,2,left,4,false,418.90000000037253,5,test
03,6886,bas,8,left,4,true,686.5,0,test
03,6905,neu,2,left,4,true,722.5,0,test
03,6924,neg,8,right,4,false,677.7000000001863,2,test
03,6943,bas,8,right,6,true,404.3999999994412,3,test
03,6962,bas,8,right,4,true,403.09999999962747,3,test
03,6981,neg,2,left,6,true,613.7999999988824,0,test
03,7000,bas,8,right,4,true,694.4999999976717,3,test
03,7019,neu,8,right,6,true,383.3000000016764,3,test
03,7038,neg,8,left,4,true,554.4000000008382,0,test
03,7057,neg,2,left,4,true,602.9999999995343,0,test
03,7076,bas,8,right,4,true,1113.1000000024214,3,test
03,7095,neu,2,right,4,false,434.3999999985099,5,test
03,7114,bas,2,right,4,true,712.2999999993481,3,test
03,7133,bas,2,right,6,true,906.5999999982305,3,test
03,7152,neg,2,left,6,true,566.2000000011176,0,test
03,7171,neg,2,right,6,false,470.49999999953434,2,test
03,7209,neu,2,right,6,false,425.9000000022352,2,test
03,7228,bas,8,left,6,true,609.7000000006519,0,test
03,7247,bas,2,right,4,true,541.8999999999069,3,test
03,7266,bas,2,left,4,true,596.4999999995343,0,test
03,7304,neu,8,left,4,true,611.1999999997206,0,test
03,7323,neg,2,left,4,false,631.0999999986961,2,test
03,7342,neu,2,left,6,false,610.800000002142,2,test
03,7361,neu,2,left,4,false,542.3999999985099,5,test
03,7380,neg,2,left,6,true,1497.5999999986961,0,test
03,7399,neg,8,right,6,true,615.3000000012107,3,test
03,7437,neg,2,right,6,false,2092.4000000017695,5,test
03,7456,bas,8,left,6,false,632.5000000032596,2,test
03,7475,neg,8,left,4,true,851.8999999975786,0,test
03,7494,neu,8,right,4,true,815.3999999994412,3,test
03,7513,neu,8,right,6,true,474.7000000020489,4,test
03,7532,neg,8,left,4,true,1631.4000000017695,1,test
03,7551,neu,2,left,4,true,458.69999999925494,1,test
03,7570,bas,8,right,6,false,798.3999999999069,2,test
03,7608,neu,8,left,4,false,589.2999999998137,2,test
03,7627,neg,2,left,4,true,616.5,0,test
03,7646,neg,2,right,4,true,435.29999999748543,4,test
03,7665,neu,8,left,6,true,537.2000000025146,1,test
03,7684,neg,8,right,4,true,391.10000000102445,4,test
03,7703,neg,8,right,6,true,471.20000000018626,4,test
03,7722,neu,2,right,6,false,655.8999999975786,2,test
03,7742,bas,2,right,4,false,1008.2000000001863,5,test
03,7761,neu,8,left,6,true,436.59999999729916,0,test
03,7780,bas,8,right,6,true,417.09999999869615,4,test
03,7799,neg,8,left,4,false,1100.8000000002794,2,test
03,7818,neu,2,right,4,false,895.7000000011176,5,test
03,7837,bas,2,right,4,true,1192.9999999995343,3,test
03,7856,neg,2,right,6,false,437.79999999981374,2,test
03,7875,bas,2,right,6,false,718.7000000011176,5,test
03,7894,neg,8,right,4,true,1171.8000000002794,4,test
03,7913,bas,2,left,4,true,669.5999999972992,0,test
03,7932,neu,2,right,4,true,625.2000000020489,3,test
03,7951,neu,8,left,6,false,537.7000000006519,4,test
03,7970,bas,2,left,4,true,422.90000000130385,1,test
03,7989,neu,8,left,6,true,558.1999999992549,0,test
03,8008,neg,8,right,4,true,548.5000000004657,4,test
03,8027,neg,2,right,4,true,410.1999999987893,4,test
03,8046,neg,2,left,6,true,665.3000000002794,1,test
03,8065,bas,2,right,4,false,409.39999999664724,2,test
03,8084,neu,8,right,4,true,537.1000000014901,3,test
03,8103,bas,8,left,4,false,412.8999999994412,5,test
03,8141,neg,8,left,4,true,442.20000000158325,0,test
03,8160,bas,2,right,6,true,441.8000000002794,3,test
03,8179,bas,8,right,4,true,575.8999999999069,3,test
03,8198,neg,8,left,4,false,471.90000000037253,2,test
03,8217,neg,2,left,6,true,526.5,0,test
03,8236,neu,8,right,4,true,413.7000000011176,3,test
03,8255,neg,2,left,6,true,571.3999999971129,0,test
03,8274,neu,8,left,4,true,545.0999999996275,0,test
03,8293,neg,2,left,4,true,3199.299999996554,1,test
03,8312,neg,8,right,4,false,581.6999999987893,5,test
03,8331,neg,8,right,6,true,554.8999999994412,3,test
03,8350,neg,8,right,6,false,627.2999999998137,2,test
03,8369,neu,8,left,6,false,446.2999999993481,2,test
03,8388,bas,8,left,6,true,568.000000002794,0,test
03,8407,neu,8,right,6,false,422.3000000016764,1,test
03,8445,neg,8,right,6,true,565.3000000016764,3,test
03,8464,bas,2,left,6,false,550.2000000015832,5,test
03,8483,neu,8,left,4,true,648.6000000005588,0,test
03,8502,bas,8,left,4,false,944.1000000005588,2,test
03,8521,neu,2,right,6,false,941.8999999980442,5,test
03,8540,neu,8,right,4,true,828.6999999983236,3,test
03,8559,neg,2,right,4,true,1033.9999999995343,3,test
03,8578,neu,2,right,4,true,463.5999999991618,3,test
03,8635,neg,8,left,4,true,737.5999999968335,0,test
03,8654,neu,8,left,4,true,471.6999999983236,0,test
03,8673,bas,2,left,4,true,1180.1999999987893,1,test
03,8692,neg,2,left,6,true,604.4000000003725,0,test
03,8711,neg,8,left,6,false,1254.1999999997206,2,test
03,8730,neg,2,right,4,true,617.0000000018626,4,test
03,8749,neu,8,right,6,false,532.2999999988824,5,test
03,8768,neu,2,right,6,false,654.5999999982305,5,test
03,8787,neu,2,left,6,true,761.7999999998137,0,test
03,8806,neu,8,left,6,false,714.1000000010245,2,test
03,8825,neg,2,left,6,false,587.1000000005588,5,test
03,8844,bas,2,right,6,true,904.1999999973923,3,test
03,8863,bas,8,right,4,true,434.0000000009313,4,test
03,8882,neu,8,right,6,true,391.49999999813735,4,test
03,8901,bas,8,right,4,true,381.7000000020489,4,test
03,8920,neu,8,right,4,true,406.20000000158325,4,test
03,8939,bas,2,right,6,true,500.6000000028871,4,test
03,8958,neu,8,right,6,true,534.1000000005588,4,test
03,8977,bas,2,left,4,true,425.9000000022352,1,test
03,8996,neu,2,left,6,true,475.90000000130385,1,test
03,9015,neu,2,left,4,true,463.8999999985099,1,test
03,9053,neu,2,left,4,true,498.8000000012107,1,test
03,9072,bas,2,right,4,true,579.9000000003725,3,test
03,9091,neu,8,left,4,true,562.7999999998137,0,test
03,9110,bas,2,right,4,true,401.60000000102445,3,test
03,9129,bas,8,left,4,true,544.7999999998137,0,test
03,9148,neg,8,right,4,true,570.2999999993481,3,test
03,9167,neg,8,left,4,false,450.6999999973923,2,test
03,9186,neu,2,left,4,true,837.5999999986961,0,test
03,9205,bas,8,right,6,false,861.4000000017695,5,test
03,9224,neg,2,left,4,true,622.1000000000931,0,test
03,9243,neu,2,right,6,true,521.0999999982305,4,test
03,9262,neu,2,right,4,true,434.9999999976717,4,test
03,9281,neu,2,right,4,false,459.8000000002794,2,test
03,9300,neg,8,left,6,true,657.500000001397,0,test
03,9319,neg,8,left,6,true,561.7000000020489,0,test
03,9338,bas,8,right,6,true,515.7999999974854,3,test
03,9357,bas,8,left,6,true,378.8999999994412,0,test
03,9376,neg,8,right,6,true,624.8999999985099,3,test
03,9395,neg,2,left,4,true,405.4000000031665,1,test
03,9414,neg,8,left,6,true,643.2999999993481,1,test
03,9433,neu,2,left,4,false,422.6000000014901,2,test
03,9452,neg,2,right,6,true,472.29999999748543,3,test
03,9471,bas,8,right,6,false,522.0000000009313,5,test
03,9490,neg,2,right,6,true,418.5,3,test
03,9509,bas,2,left,6,true,1131.6999999983236,0,test
03,9528,bas,8,left,4,true,388.8999999980442,0,test
03,9566,neu,2,left,6,true,420.9000000008382,0,test
03,9585,bas,8,left,4,true,569.7999999974854,0,test
03,9604,bas,2,right,6,true,383.59999999729916,3,test
03,9623,neg,2,right,4,true,438.40000000270084,3,test
03,9642,neg,8,right,6,true,603.2000000015832,3,test
03,9661,neu,2,left,6,true,646.7999999988824,0,test
03,9680,bas,8,left,6,true,612.4000000017695,0,test
03,9699,bas,8,right,4,true,412.8000000016764,3,test
03,9718,bas,2,left,6,false,469.0000000009313,5,test
03,9737,bas,8,left,6,true,451.30000000074506,0,test
03,9756,neg,2,left,4,true,489.10000000242144,0,test
03,9775,neu,8,right,4,true,611.8999999999069,3,test
03,9794,neg,8,right,4,true,538.499999998603,3,test
03,9813,neg,2,right,6,false,414.1000000014901,2,test
03,9832,neu,2,right,6,false,1842.2000000029802,5,test
03,9889,bas,8,left,6,true,398.6000000005588,0,test
03,9927,neg,2,right,4,false,460.99999999953434,2,test
03,9946,neu,2,left,6,false,1226.0000000023283,5,test
03,9984,neu,8,right,6,true,542.6000000005588,3,test
03,10003,neg,2,left,4,true,590.4999999981374,0,test
03,10022,bas,8,right,4,true,573.2999999998137,3,test
03,10041,neg,2,right,6,true,627.4000000013039,3,test
03,10060,neu,2,right,6,true,498.70000000018626,3,test
03,10079,bas,2,left,6,true,1373.1000000005588,0,test
03,10098,bas,2,left,4,true,1628.4000000017695,0,test
03,10117,neg,8,left,6,true,1375.700000000652,0,test
03,10136,neu,8,left,4,true,532.8999999985099,0,test
03,10155,neu,2,left,4,false,530.2999999984168,5,test
03,10174,bas,8,right,6,true,406.10000000009313,3,test
03,10193,bas,2,left,6,false,442.8999999980442,2,test
03,10213,neu,8,left,4,true,607.2999999998137,0,test
03,10232,bas,8,right,6,true,491.9000000008382,3,test
03,10251,neg,8,right,6,true,460.8999999985099,4,test
03,10270,bas,2,left,4,false,491.79999999981374,2,test
03,10289,neu,2,left,6,true,1166.9000000003725,0,test
03,10308,neg,8,right,4,true,1385.8999999975786,4,test
03,10327,bas,8,right,6,true,622.8999999985099,4,test
03,10346,neg,8,left,4,true,1049.9999999990687,1,test
03,10365,bas,2,left,4,true,431.00000000046566,1,test
03,10384,neu,8,right,6,true,433.0000000009313,4,test
03,10403,neg,2,right,6,true,415.8000000026077,4,test
03,10422,neg,2,left,6,false,622.9999999995343,2,test
03,10441,neu,8,left,6,true,813.6000000014901,1,test
03,10460,neu,8,right,6,true,709.8000000007451,4,test
03,10479,neu,2,right,4,true,445.9000000022352,4,test
03,10498,bas,2,right,4,false,378.19999999925494,2,test
03,10536,neg,8,right,4,true,975.4999999967404,4,test
03,10555,neu,2,right,6,false,390.60000000242144,5,test
03,10574,bas,8,left,4,true,1170.0999999996275,1,test
03,10593,neg,8,left,6,true,450.30000000074506,0,test
03,10612,neu,2,left,4,true,422.0000000023283,0,test
03,10631,bas,2,right,4,true,409,4,test
03,10650,bas,2,right,4,true,627.800000002142,4,test
03,10669,bas,8,left,4,false,412.49999999813735,2,test
03,10688,bas,2,left,6,true,585.9999999990687,1,test
03,10707,bas,2,right,6,true,543.6999999983236,4,test
03,10726,bas,2,left,4,true,414.79999999841675,1,test
03,10745,neg,8,left,4,true,628.0000000004657,1,test
03,10764,bas,2,right,4,false,472.7000000020489,2,test
03,10783,neu,8,left,6,true,393,1,test
03,10802,bas,2,left,6,true,410.50000000186265,1,test
03,10821,neg,2,left,6,false,2003.6000000000931,5,test
03,10840,neg,2,left,4,false,669.2000000001863,2,test
03,10859,bas,8,left,6,true,1140.4999999976717,1,test
03,10878,bas,8,left,4,true,409,1,test
03,10897,neg,2,left,6,false,639.2999999988824,2,test
03,10916,bas,2,left,6,true,457.09999999962747,1,test
03,10954,neg,2,left,6,true,419.8999999971129,1,test
03,10973,bas,8,left,6,true,481.1000000005588,1,test
03,10992,bas,8,left,4,false,414.7000000011176,2,test
03,11011,neu,8,left,6,true,446.70000000018626,1,test
03,11030,neu,2,left,4,true,730.5999999991618,0,test
03,11049,neu,2,left,4,true,831.9999999981374,0,test
03,11068,neg,8,left,6,true,1253.0000000004657,0,test
03,11087,neg,2,right,4,false,669.6000000010245,2,test
03,11106,neu,8,right,4,true,416.09999999869615,3,test
03,11144,neu,8,right,4,true,608.1999999987893,3,test
03,11163,bas,2,right,6,false,607.3999999971129,2,test
03,11182,neu,2,right,6,false,567.8000000002794,5,test
03,11201,bas,8,right,4,true,739.1000000024214,3,test
03,11239,neg,2,left,4,true,491.20000000018626,0,test
03,11258,neg,8,right,6,true,773.4999999995343,3,test
03,11277,neg,8,right,4,false,2277.099999999162,2,test
03,11296,bas,2,right,4,true,664.499999998603,4,test
03,11315,bas,2,left,6,true,429.8999999994412,1,test
03,11334,bas,2,left,6,true,421.69999999925494,1,test
03,11353,neg,8,left,4,true,396.59999999962747,1,test
03,11372,bas,2,right,6,true,450.499999998603,4,test
03,11391,neg,2,right,4,false,622.1000000005588,2,test
03,11410,neu,2,left,4,false,1554.2999999998137,5,test
03,11429,neg,8,left,6,true,1178.2000000025146,0,test
03,11448,neu,8,right,6,true,599.2000000011176,3,test
03,11467,neg,8,left,4,false,578.0999999986961,2,test
03,11486,neg,8,left,6,true,1517.7000000001863,0,test
03,11505,neg,8,right,6,true,654.1000000005588,3,test
03,11524,neg,2,right,6,false,2906.900000002235,5,test
03,11543,neg,2,right,6,false,641.0000000037253,2,test
03,11562,neu,8,left,4,true,487.8999999994412,0,test
03,11581,bas,2,right,6,true,463,3,test
03,11600,bas,8,right,4,true,478.69999999925494,3,test
03,11619,neu,2,left,6,true,474.00000000186265,0,test
03,11638,neu,2,left,6,true,882.1000000024214,0,test
03,11657,bas,8,right,6,false,472.5,5,test
03,11676,bas,8,left,6,true,449.19999999925494,1,test
03,11714,neg,8,right,4,true,772.1000000014901,3,test
03,11733,bas,2,right,6,true,527.6000000014901,4,test
03,11752,neu,2,right,6,false,1512.9000000013039,5,test
03,11771,neu,2,right,4,true,698.8000000016764,3,test
03,11790,neg,2,left,4,true,678.7999999979511,0,test
03,11828,neu,2,left,6,false,1307.0999999986961,2,test
03,11847,neu,8,left,4,false,470.19999999925494,2,test
03,11866,bas,8,right,4,true,2174.000000002794,4,test
03,11885,bas,8,right,6,true,699.4999999990687,4,test
03,11904,neg,8,right,6,true,456.3999999994412,4,test
03,11923,neu,8,left,4,true,630.500000002794,1,test
03,11942,neu,8,right,4,false,786.1000000014901,5,test
03,11961,bas,8,left,6,true,748.8000000016764,0,test
03,11980,neu,2,right,6,true,745.9999999990687,3,test
03,12018,neg,2,right,4,true,721.7000000020489,3,test
03,12037,neg,8,right,4,false,1358.7000000001863,5,test
03,12056,neu,8,left,6,true,801.3000000026077,0,test
03,12075,neg,2,right,4,false,430.9000000031665,2,test
03,12094,neg,2,right,6,false,553.8000000016764,5,test
03,12113,neu,8,left,6,false,481.40000000037253,2,test
03,12132,neg,8,left,6,false,998.6000000024214,5,test
03,12151,bas,8,left,6,false,1061.700000002049,5,test
03,12170,neu,2,left,4,true,749.7000000011176,0,test
03,12189,neu,8,right,6,true,1364.4999999990687,3,test
03,12208,neg,2,right,4,true,551.1000000005588,3,test
03,12227,neu,8,right,4,false,559.8000000026077,2,test
03,12246,neu,2,right,4,true,581.0999999996275,3,test
03,12284,bas,2,left,4,true,638.3999999994412,0,test
03,12303,neg,2,left,4,true,506.99999999813735,0,test
03,12322,bas,8,right,4,true,601.2999999979511,3,test
03,12341,neg,8,left,4,true,591.7999999988824,0,test
03,12360,neu,2,left,6,true,428.8999999994412,0,test
03,12379,neg,2,left,6,false,539.9000000003725,2,test
03,12398,bas,2,left,4,true,581.5,0,test
03,12417,neu,2,right,6,true,426.8000000016764,3,test
03,12436,neg,8,right,6,true,424.59999999869615,3,test
03,12455,neg,2,left,4,true,428.70000000018626,0,test
03,12474,bas,8,right,6,false,426.5000000009313,2,test
03,12493,neu,8,left,4,false,1191.5999999977648,2,test
03,12512,neu,8,right,4,true,367.89999999757856,3,test
03,12531,neu,2,right,4,true,428.2000000020489,4,test
03,12550,neu,2,right,4,true,669.5999999977648,4,test
03,12569,bas,8,right,4,true,617.5000000009313,4,test
03,12607,neu,8,right,6,false,687.9000000003725,2,test
03,12626,neg,2,right,6,true,445.50000000186265,4,test
03,12645,bas,8,left,4,true,1089.2999999998137,1,test
04,329,neg,2,left,6,true,879.7999999998137,1,test
04,348,neg,2,right,4,true,1091.1000000000931,4,test
04,367,neg,2,right,6,true,2445.6999999997206,4,test
04,386,neg,2,left,6,true,712.8999999999069,0,test
04,405,neg,2,right,6,false,2192.2000000001863,1,test
04,424,neu,2,right,4,false,2713.399999999441,5,test
04,443,neu,2,left,6,false,827,4,test
04,462,bas,8,right,4,true,537.5,3,test
04,481,bas,2,right,6,true,3275.4000000003725,4,test
04,500,bas,8,right,4,false,1589.6999999997206,2,test
04,519,bas,2,left,6,true,3458.2999999998137,1,test
04,538,neu,8,left,4,false,3977.3000000002794,2,test
04,557,bas,8,right,6,true,1229.1000000000931,3,test
04,576,neg,8,left,4,false,3146.600000000093,2,test
04,595,bas,8,right,6,true,645.3999999999069,3,test
04,614,neg,2,left,4,true,635.4000000003725,0,test
04,633,bas,2,left,6,true,530.9000000003725,0,test
04,652,neu,2,left,6,true,791.6000000000931,1,test
04,671,neu,2,right,6,false,1151.8999999999069,5,test
04,690,neg,2,right,4,true,460.59999999962747,4,test
04,709,neg,8,right,4,true,544.2000000001863,3,test
04,728,bas,2,right,6,true,664.7999999998137,3,test
04,747,bas,8,left,4,true,2228,1,test
04,766,neu,8,left,4,true,566.5,0,test
04,804,neg,8,left,4,true,7482.800000000279,1,test
04,842,neu,2,left,4,true,678.3999999999069,0,test
04,861,neu,8,right,6,true,536.1000000000931,3,test
04,899,neg,8,right,6,true,596,3,test
04,918,bas,8,left,6,true,668.1000000000931,0,test
04,937,neu,2,right,4,false,1629.2999999998137,5,test
04,956,neu,8,right,4,true,470.6999999997206,3,test
04,975,neu,8,right,4,true,548.1000000000931,3,test
04,994,neu,8,right,4,true,454.3000000002794,3,test
04,1032,bas,2,right,4,true,526.3999999999069,3,test
04,1051,bas,2,right,4,true,555.2000000001863,3,test
04,1070,neg,8,left,6,true,1478.3999999999069,0,test
04,1089,neg,2,right,6,true,828.2000000001863,4,test
04,1108,neu,2,left,4,true,1543.5,0,test
04,1127,neu,2,right,4,false,696.1000000000931,2,test
04,1146,neu,2,left,6,true,622.4000000003725,0,test
04,1165,neg,8,right,6,true,578,3,test
04,1184,neg,8,right,4,true,1827.0000000004657,4,test
04,1203,neu,2,left,4,true,1156.8000000002794,1,test
04,1222,neg,8,left,6,true,1185.2000000001863,0,test
04,1241,bas,2,right,6,true,467.79999999981374,3,test
04,1260,neu,8,left,6,true,619.2000000001863,0,test
04,1279,bas,2,left,4,true,560.0999999996275,0,test
04,1298,neu,8,left,4,true,638.1000000000931,0,test
04,1317,bas,2,left,4,true,558.6999999997206,0,test
04,1336,bas,2,left,6,false,5451.699999999721,5,test
04,1355,neu,8,left,6,true,591,1,test
04,1374,neu,2,left,6,true,530.6999999997206,0,test
04,1393,neu,2,right,4,true,483.10000000009313,3,test
04,1431,neg,2,right,4,true,498,3,test
04,1450,neu,8,right,6,true,452.20000000018626,3,test
04,1488,bas,2,right,4,true,596.5,3,test
04,1507,bas,8,right,6,true,720,3,test
04,1526,neu,2,right,6,true,950.2000000001863,4,test
04,1545,neu,2,left,4,true,1075,0,test
04,1564,bas,8,left,6,true,987.1000000000931,0,test
04,1583,neu,8,right,4,true,482.89999999990687,3,test
04,1602,neg,8,right,6,true,401.60000000009313,3,test
04,1621,neu,8,left,4,true,626.0999999996275,0,test
04,1640,neg,2,left,6,false,1317.3999999999069,5,test
04,1659,bas,8,left,6,true,510.89999999990687,0,test
04,1697,neu,8,right,6,true,474.60000000009313,3,test
04,1716,bas,2,right,6,true,823.3999999999069,3,test
04,1735,neu,8,right,6,true,487.60000000009313,3,test
04,1754,neg,8,left,6,true,534.5,0,test
04,1773,neu,8,left,4,true,554.1000000000931,0,test
04,1792,bas,8,left,4,true,1422.8999999999069,1,test
04,1811,neg,8,right,4,true,1337.1000000000931,3,test
04,1830,neg,2,left,4,true,721.7999999998137,0,test
04,1849,neg,2,right,4,true,436.89999999990687,3,test
04,1868,neg,8,right,6,true,465.20000000018626,3,test
04,1887,bas,8,left,4,true,985.7000000001863,0,test
04,1906,bas,8,left,4,true,622.3000000002794,0,test
04,1925,neg,8,right,4,true,696.8000000002794,3,test
04,1944,neu,2,right,6,false,559.7999999998137,2,test
04,1963,bas,2,left,6,true,431.59999999962747,1,test
04,1982,neu,2,left,4,true,575.3999999999069,0,test
04,2001,neu,8,left,6,true,516.4999999995343,0,test
04,2020,neg,8,left,4,true,356.6999999997206,0,test
04,2039,neu,8,left,6,true,410.09999999962747,0,test
04,2058,neg,2,left,6,true,468.10000000009313,1,test
04,2077,neg,2,left,4,true,468.70000000018626,0,test
04,2096,neg,8,left,4,true,1981.3000000002794,1,test
04,2115,bas,8,right,6,true,435,3,test
04,2134,bas,8,left,6,true,512.6999999997206,0,test
04,2153,neu,8,left,6,true,366.2000000006519,0,test
04,2172,bas,8,right,4,true,721,3,test
04,2191,bas,2,right,4,true,1068.0999999996275,4,test
04,2210,bas,2,right,4,true,1188.3000000002794,3,test
04,2229,bas,2,left,6,true,677.1999999997206,0,test
04,2248,bas,8,right,6,true,597,4,test
04,2267,bas,2,left,4,true,573.9000000003725,0,test
04,2286,neg,2,right,4,false,903.5,5,test
04,2305,bas,8,right,4,true,570,3,test
04,2324,neu,8,right,6,true,602.0000000004657,4,test
04,2343,neu,2,right,6,false,882.8999999999069,2,test
04,2381,neg,8,left,6,true,1274.7999999998137,1,test
04,2400,neg,2,right,6,true,783.8999999999069,3,test
04,2419,bas,2,left,4,false,1108,5,test
04,2457,bas,2,left,4,true,1054.1000000000931,0,test
04,2476,bas,8,left,4,true,2503,0,test
04,2495,bas,2,right,6,true,703.7000000001863,3,test
04,2514,neg,2,left,6,true,1180.6999999997206,0,test
04,2533,neg,2,left,4,true,409.39999999990687,0,test
04,2552,neu,8,right,4,true,1242.8999999999069,3,test
04,2571,bas,8,left,6,true,616.9999999995343,0,test
04,2590,neg,2,right,6,false,644.8000000002794,2,test
04,2609,bas,8,right,4,true,698.9000000003725,4,test
04,2628,neg,8,left,6,true,1201.7999999998137,1,test
04,2647,neu,2,left,6,true,711.6000000000931,0,test
04,2666,neu,2,right,6,true,571.8999999999069,3,test
04,2685,neu,2,right,4,false,784.0000000004657,1,test
04,2704,neg,8,left,4,true,486.5,0,test
04,2723,neg,8,right,6,true,558.5,3,test
04,2742,neg,8,right,4,true,575.8999999999069,4,test
04,2780,neg,2,left,4,true,690.8999999999069,0,test
04,2800,neu,8,right,6,true,545.4999999995343,3,test
04,2819,bas,8,left,6,true,518,0,test
04,2876,neu,8,left,4,true,553.2999999998137,0,test
04,2914,neu,2,left,4,true,2923.100000000093,1,test
04,2933,bas,2,left,4,true,2533.100000000093,0,test
04,2952,neu,2,right,6,false,742.1000000005588,5,test
04,2971,neg,8,right,6,false,5213.399999999907,1,test
04,2990,neu,2,right,4,false,2205.899999999907,5,test
04,3009,bas,8,left,6,true,762.2999999998137,0,test
04,3028,neg,2,left,4,false,6124.0999999996275,2,test
04,3047,neg,8,left,6,true,567.8999999999069,0,test
04,3066,neg,2,left,4,true,560,0,test
04,3085,neg,2,left,6,true,578.5,0,test
04,3104,bas,8,right,4,true,620.1000000000931,3,test
04,3123,neu,8,right,6,true,499.8000000002794,3,test
04,3142,neg,2,right,6,true,580.5999999996275,4,test
04,3161,neu,8,left,6,true,444,0,test
04,3180,bas,2,left,4,true,598.0999999996275,0,test
04,3199,neu,2,left,4,true,509.5,1,test
04,3218,neu,2,right,4,true,637.3000000002794,4,test
