row,speed,colors,humanPaddleSize,aiPaddleSize,humanScore,aiScore,guess,tutorial,practice,rt,trial_index,time_elapsed,trial_type,button_pressed,response,responses,worker_id
1,NULL,NULL,NULL,NULL,NULL,NULL,NULL,NULL,NULL,1405,0,1408,html-keyboard-response,NULL,NULL,NULL,NULL
2,NULL,NULL,NULL,NULL,NULL,NULL,NULL,NULL,NULL,1405,0,1408,html-keyboard-response,NULL,NULL,NULL,NULL
3,NULL,NULL,NULL,NULL,NULL,NULL,NULL,NULL,NULL,NULL,1,2723,call-function,NULL,NULL,NULL,NULL
4,13,Array,1.2,1,0,12,2,1,1,NULL,2,59416,pong,NULL,NULL,NULL,NULL
5,NULL,NULL,NULL,NULL,NULL,NULL,NULL,NULL,NULL,1227,3,60643,html-keyboard-response,NULL,NULL,NULL,NULL
6,13,Array,1.9,1,0,2,2,NULL,1,NULL,4,81033,pong,NULL,NULL,NULL,NULL
7,NULL,NULL,NULL,NULL,NULL,NULL,NULL,NULL,NULL,529,0,530,html-keyboard-response,NULL,NULL,NULL,NULL
8,NULL,NULL,NULL,NULL,NULL,NULL,NULL,NULL,NULL,1612,0,1614,html-keyboard-response,NULL,NULL,NULL,NULL
9,NULL,NULL,NULL,NULL,NULL,NULL,NULL,NULL,NULL,735,0,739,html-keyboard-response,NULL,NULL,NULL,NULL
10,NULL,NULL,NULL,NULL,NULL,NULL,NULL,NULL,NULL,14588,0,14593,html-keyboard-response,NULL,NULL,NULL,NULL
11,NULL,NULL,NULL,NULL,NULL,NULL,NULL,NULL,NULL,81230,0,81232,html-keyboard-response,NULL,NULL,NULL,NULL
12,NULL,NULL,NULL,NULL,NULL,NULL,NULL,NULL,NULL,14588,0,14593,html-keyboard-response,NULL,NULL,NULL,NULL
13,NULL,NULL,NULL,NULL,NULL,NULL,NULL,NULL,NULL,NULL,1,16283,call-function,NULL,NULL,NULL,NULL
14,13,Array,1.2,1,0,0,3,1,1,NULL,2,88081,pong,NULL,NULL,NULL,NULL
15,NULL,NULL,NULL,NULL,NULL,NULL,NULL,NULL,NULL,86620,3,174704,html-keyboard-response,NULL,NULL,NULL,NULL
16,15,Array,0.5,1,2,2,1,NULL,1,NULL,4,193157,pong,NULL,NULL,NULL,NULL
17,NULL,NULL,NULL,NULL,NULL,NULL,NULL,NULL,NULL,7910,0,7913,html-keyboard-response,NULL,NULL,NULL,Firestone
18,13,Array,1.2,1,5,11,2,1,1,NULL,1,73058,pong,NULL,NULL,NULL,Firestone
19,NULL,NULL,NULL,NULL,NULL,NULL,NULL,NULL,NULL,1698,2,74757,html-keyboard-response,NULL,NULL,NULL,Firestone
20,17,Array,1.9,1,0,2,3,NULL,1,NULL,3,92042,pong,NULL,NULL,NULL,Firestone
21,NULL,NULL,NULL,NULL,NULL,NULL,NULL,NULL,NULL,905,0,910,html-keyboard-response,NULL,NULL,NULL,Firestone
22,13,Array,1.2,1,5,8,1,1,1,NULL,1,73339,pong,NULL,NULL,NULL,Firestone
23,NULL,NULL,NULL,NULL,NULL,NULL,NULL,NULL,NULL,640,2,73980,html-keyboard-response,NULL,NULL,NULL,Firestone
24,13,Array,0.5,1,1,4,1,NULL,1,NULL,3,96005,pong,NULL,NULL,NULL,Firestone
25,NULL,NULL,NULL,NULL,NULL,NULL,NULL,NULL,NULL,905,0,910,html-keyboard-response,NULL,NULL,NULL,Firestone
26,13,Array,1.2,1,5,8,1,1,1,NULL,1,73339,pong,NULL,NULL,NULL,Firestone
27,NULL,NULL,NULL,NULL,NULL,NULL,NULL,NULL,NULL,640,2,73980,html-keyboard-response,NULL,NULL,NULL,Firestone
28,13,Array,0.5,1,1,4,1,NULL,1,NULL,3,96005,pong,NULL,NULL,NULL,Firestone
29,NULL,NULL,NULL,NULL,NULL,NULL,NULL,NULL,NULL,NULL,4,96007,call-function,NULL,NULL,NULL,Firestone
30,NULL,NULL,NULL,NULL,NULL,NULL,NULL,NULL,NULL,2603,5,98610,html-keyboard-response,NULL,NULL,NULL,Firestone
31,17,Array,1.9,1,0,1,3,NULL,1,NULL,6,120789,pong,NULL,NULL,NULL,Firestone
32,NULL,NULL,NULL,NULL,NULL,NULL,NULL,NULL,NULL,1971,7,122760,html-keyboard-response,NULL,NULL,NULL,Firestone
33,15,Array,1.9,1,1,1,1,NULL,NULL,NULL,8,138788,pong,NULL,NULL,NULL,Firestone
34,NULL,NULL,NULL,NULL,NULL,NULL,NULL,NULL,NULL,2327,9,141119,html-button-response,2,NULL,NULL,Firestone
35,NULL,NULL,NULL,NULL,NULL,NULL,NULL,NULL,NULL,1039,10,142159,html-button-response,2,NULL,NULL,Firestone
36,NULL,NULL,NULL,NULL,NULL,NULL,NULL,NULL,NULL,2291,11,144451,html-slider-response,NULL,37,NULL,Firestone
37,NULL,NULL,NULL,NULL,NULL,NULL,NULL,NULL,NULL,905,0,910,html-keyboard-response,NULL,NULL,NULL,Firestone
38,13,Array,1.2,1,5,8,1,1,1,NULL,1,73339,pong,NULL,NULL,NULL,Firestone
39,NULL,NULL,NULL,NULL,NULL,NULL,NULL,NULL,NULL,640,2,73980,html-keyboard-response,NULL,NULL,NULL,Firestone
40,13,Array,0.5,1,1,4,1,NULL,1,NULL,3,96005,pong,NULL,NULL,NULL,Firestone
41,NULL,NULL,NULL,NULL,NULL,NULL,NULL,NULL,NULL,NULL,4,96007,call-function,NULL,NULL,NULL,Firestone
42,NULL,NULL,NULL,NULL,NULL,NULL,NULL,NULL,NULL,2603,5,98610,html-keyboard-response,NULL,NULL,NULL,Firestone
43,17,Array,1.9,1,0,1,3,NULL,1,NULL,6,120789,pong,NULL,NULL,NULL,Firestone
44,NULL,NULL,NULL,NULL,NULL,NULL,NULL,NULL,NULL,1971,7,122760,html-keyboard-response,NULL,NULL,NULL,Firestone
45,15,Array,1.9,1,1,1,1,NULL,NULL,NULL,8,138788,pong,NULL,NULL,NULL,Firestone
46,NULL,NULL,NULL,NULL,NULL,NULL,NULL,NULL,NULL,2327,9,141119,html-button-response,2,NULL,NULL,Firestone
47,NULL,NULL,NULL,NULL,NULL,NULL,NULL,NULL,NULL,1039,10,142159,html-button-response,2,NULL,NULL,Firestone
48,NULL,NULL,NULL,NULL,NULL,NULL,NULL,NULL,NULL,2291,11,144451,html-slider-response,NULL,37,NULL,Firestone
49,NULL,NULL,NULL,NULL,NULL,NULL,NULL,NULL,NULL,NULL,12,144452,call-function,NULL,NULL,NULL,Firestone
50,15,Array,1.9,1,3,3,2,NULL,NULL,NULL,13,163522,pong,NULL,NULL,NULL,Firestone
51,NULL,NULL,NULL,NULL,NULL,NULL,NULL,NULL,NULL,5950,14,169473,html-button-response,1,NULL,NULL,Firestone
52,NULL,NULL,NULL,NULL,NULL,NULL,NULL,NULL,NULL,854,15,170327,html-button-response,2,NULL,NULL,Firestone
53,NULL,NULL,NULL,NULL,NULL,NULL,NULL,NULL,NULL,1343,16,171672,html-slider-response,NULL,90,NULL,Firestone
54,NULL,NULL,NULL,NULL,NULL,NULL,NULL,NULL,NULL,11161,0,11166,html-keyboard-response,NULL,NULL,NULL,NULL
55,13,Array,1.2,1,0,0,2,1,1,NULL,1,71222,pong,NULL,NULL,NULL,NULL
56,NULL,NULL,NULL,NULL,NULL,NULL,NULL,NULL,NULL,2107,2,73330,html-keyboard-response,NULL,NULL,NULL,NULL
57,15,Array,0.5,1,2,2,1,NULL,1,NULL,3,95790,pong,NULL,NULL,NULL,NULL
58,NULL,NULL,NULL,NULL,NULL,NULL,NULL,NULL,NULL,11161,0,11166,html-keyboard-response,NULL,NULL,NULL,NULL
59,13,Array,1.2,1,0,0,2,1,1,NULL,1,71222,pong,NULL,NULL,NULL,NULL
60,NULL,NULL,NULL,NULL,NULL,NULL,NULL,NULL,NULL,2107,2,73330,html-keyboard-response,NULL,NULL,NULL,NULL
61,15,Array,0.5,1,2,2,1,NULL,1,NULL,3,95790,pong,NULL,NULL,NULL,NULL
62,NULL,NULL,NULL,NULL,NULL,NULL,NULL,NULL,NULL,NULL,4,95797,call-function,NULL,NULL,NULL,NULL
63,NULL,NULL,NULL,NULL,NULL,NULL,NULL,NULL,NULL,1819,5,97618,html-keyboard-response,NULL,NULL,NULL,NULL
64,15,Array,1.2,1,0,1,2,NULL,1,NULL,6,114573,pong,NULL,NULL,NULL,NULL
65,NULL,NULL,NULL,NULL,NULL,NULL,NULL,NULL,NULL,1224,7,115799,html-keyboard-response,NULL,NULL,NULL,NULL
66,17,Array,0.5,1,9,1,1,NULL,NULL,NULL,8,138075,pong,NULL,NULL,NULL,NULL
67,NULL,NULL,NULL,NULL,NULL,NULL,NULL,NULL,NULL,5574,9,143654,html-button-response,0,NULL,NULL,NULL
68,NULL,NULL,NULL,NULL,NULL,NULL,NULL,NULL,NULL,1928,10,145585,html-button-response,2,NULL,NULL,NULL
69,NULL,NULL,NULL,NULL,NULL,NULL,NULL,NULL,NULL,3760,11,149349,html-slider-response,NULL,73,NULL,NULL
70,NULL,NULL,NULL,NULL,NULL,NULL,NULL,NULL,NULL,6735,0,6740,html-keyboard-response,NULL,NULL,NULL,NULL
71,13,Array,1.2,1,3,0,3,1,1,NULL,1,81955,pong,NULL,NULL,NULL,NULL
72,NULL,NULL,NULL,NULL,NULL,NULL,NULL,NULL,NULL,2536,2,84492,html-keyboard-response,NULL,NULL,NULL,NULL
73,15,Array,1.9,1,0,0,2,NULL,1,NULL,3,105489,pong,NULL,NULL,NULL,NULL
74,NULL,NULL,NULL,NULL,NULL,NULL,NULL,NULL,NULL,6735,0,6740,html-keyboard-response,NULL,NULL,NULL,NULL
75,13,Array,1.2,1,3,0,3,1,1,NULL,1,81955,pong,NULL,NULL,NULL,NULL
76,NULL,NULL,NULL,NULL,NULL,NULL,NULL,NULL,NULL,2536,2,84492,html-keyboard-response,NULL,NULL,NULL,NULL
77,15,Array,1.9,1,0,0,2,NULL,1,NULL,3,105489,pong,NULL,NULL,NULL,NULL
78,NULL,NULL,NULL,NULL,NULL,NULL,NULL,NULL,NULL,NULL,4,105492,call-function,NULL,NULL,NULL,NULL
79,NULL,NULL,NULL,NULL,NULL,NULL,NULL,NULL,NULL,1673,5,107167,html-keyboard-response,NULL,NULL,NULL,NULL
80,13,Array,0.5,1,0,0,1,NULL,1,NULL,6,124774,pong,NULL,NULL,NULL,NULL
81,NULL,NULL,NULL,NULL,NULL,NULL,NULL,NULL,NULL,1076,7,125857,html-keyboard-response,NULL,NULL,NULL,NULL
82,15,Array,1.9,1,2,1,1,NULL,NULL,NULL,8,144741,pong,NULL,NULL,NULL,NULL
83,NULL,NULL,NULL,NULL,NULL,NULL,NULL,NULL,NULL,2167,9,146912,html-button-response,0,NULL,NULL,NULL
84,NULL,NULL,NULL,NULL,NULL,NULL,NULL,NULL,NULL,1305,10,148219,html-button-response,2,NULL,NULL,NULL
85,NULL,NULL,NULL,NULL,NULL,NULL,NULL,NULL,NULL,3513,11,151736,html-slider-response,NULL,40,NULL,NULL
86,NULL,NULL,NULL,NULL,NULL,NULL,NULL,NULL,NULL,6735,0,6740,html-keyboard-response,NULL,NULL,NULL,NULL
87,13,Array,1.2,1,3,0,3,1,1,NULL,1,81955,pong,NULL,NULL,NULL,NULL
88,NULL,NULL,NULL,NULL,NULL,NULL,NULL,NULL,NULL,2536,2,84492,html-keyboard-response,NULL,NULL,NULL,NULL
89,15,Array,1.9,1,0,0,2,NULL,1,NULL,3,105489,pong,NULL,NULL,NULL,NULL
90,NULL,NULL,NULL,NULL,NULL,NULL,NULL,NULL,NULL,NULL,4,105492,call-function,NULL,NULL,NULL,NULL
91,NULL,NULL,NULL,NULL,NULL,NULL,NULL,NULL,NULL,1673,5,107167,html-keyboard-response,NULL,NULL,NULL,NULL
92,13,Array,0.5,1,0,0,1,NULL,1,NULL,6,124774,pong,NULL,NULL,NULL,NULL
93,NULL,NULL,NULL,NULL,NULL,NULL,NULL,NULL,NULL,1076,7,125857,html-keyboard-response,NULL,NULL,NULL,NULL
94,15,Array,1.9,1,2,1,1,NULL,NULL,NULL,8,144741,pong,NULL,NULL,NULL,NULL
95,NULL,NULL,NULL,NULL,NULL,NULL,NULL,NULL,NULL,2167,9,146912,html-button-response,0,NULL,NULL,NULL
96,NULL,NULL,NULL,NULL,NULL,NULL,NULL,NULL,NULL,1305,10,148219,html-button-response,2,NULL,NULL,NULL
97,NULL,NULL,NULL,NULL,NULL,NULL,NULL,NULL,NULL,3513,11,151736,html-slider-response,NULL,40,NULL,NULL
98,NULL,NULL,NULL,NULL,NULL,NULL,NULL,NULL,NULL,NULL,12,151739,call-function,NULL,NULL,NULL,NULL
99,15,Array,1.9,1,4,0,2,NULL,NULL,NULL,13,171960,pong,NULL,NULL,NULL,NULL
100,NULL,NULL,NULL,NULL,NULL,NULL,NULL,NULL,NULL,1783,14,173744,html-button-response,1,NULL,NULL,NULL
101,NULL,NULL,NULL,NULL,NULL,NULL,NULL,NULL,NULL,839,15,174586,html-button-response,1,NULL,NULL,NULL
102,NULL,NULL,NULL,NULL,NULL,NULL,NULL,NULL,NULL,894,16,175484,html-slider-response,NULL,50,NULL,NULL
103,NULL,NULL,NULL,NULL,NULL,NULL,NULL,NULL,NULL,6735,0,6740,html-keyboard-response,NULL,NULL,NULL,NULL
104,13,Array,1.2,1,3,0,3,1,1,NULL,1,81955,pong,NULL,NULL,NULL,NULL
105,NULL,NULL,NULL,NULL,NULL,NULL,NULL,NULL,NULL,2536,2,84492,html-keyboard-response,NULL,NULL,NULL,NULL
106,15,Array,1.9,1,0,0,2,NULL,1,NULL,3,105489,pong,NULL,NULL,NULL,NULL
107,NULL,NULL,NULL,NULL,NULL,NULL,NULL,NULL,NULL,NULL,4,105492,call-function,NULL,NULL,NULL,NULL
108,NULL,NULL,NULL,NULL,NULL,NULL,NULL,NULL,NULL,1673,5,107167,html-keyboard-response,NULL,NULL,NULL,NULL
109,13,Array,0.5,1,0,0,1,NULL,1,NULL,6,124774,pong,NULL,NULL,NULL,NULL
110,NULL,NULL,NULL,NULL,NULL,NULL,NULL,NULL,NULL,1076,7,125857,html-keyboard-response,NULL,NULL,NULL,NULL
111,15,Array,1.9,1,2,1,1,NULL,NULL,NULL,8,144741,pong,NULL,NULL,NULL,NULL
112,NULL,NULL,NULL,NULL,NULL,NULL,NULL,NULL,NULL,2167,9,146912,html-button-response,0,NULL,NULL,NULL
113,NULL,NULL,NULL,NULL,NULL,NULL,NULL,NULL,NULL,1305,10,148219,html-button-response,2,NULL,NULL,NULL
114,NULL,NULL,NULL,NULL,NULL,NULL,NULL,NULL,NULL,3513,11,151736,html-slider-response,NULL,40,NULL,NULL
115,NULL,NULL,NULL,NULL,NULL,NULL,NULL,NULL,NULL,NULL,12,151739,call-function,NULL,NULL,NULL,NULL
116,15,Array,1.9,1,4,0,2,NULL,NULL,NULL,13,171960,pong,NULL,NULL,NULL,NULL
117,NULL,NULL,NULL,NULL,NULL,NULL,NULL,NULL,NULL,1783,14,173744,html-button-response,1,NULL,NULL,NULL
118,NULL,NULL,NULL,NULL,NULL,NULL,NULL,NULL,NULL,839,15,174586,html-button-response,1,NULL,NULL,NULL
119,NULL,NULL,NULL,NULL,NULL,NULL,NULL,NULL,NULL,894,16,175484,html-slider-response,NULL,50,NULL,NULL
120,NULL,NULL,NULL,NULL,NULL,NULL,NULL,NULL,NULL,NULL,17,175486,call-function,NULL,NULL,NULL,NULL
121,15,Array,1.2,1,5,1,1,NULL,NULL,NULL,18,198361,pong,NULL,NULL,NULL,NULL
122,NULL,NULL,NULL,NULL,NULL,NULL,NULL,NULL,NULL,3803,19,202166,html-button-response,0,NULL,NULL,NULL
123,NULL,NULL,NULL,NULL,NULL,NULL,NULL,NULL,NULL,1412,20,203580,html-button-response,2,NULL,NULL,NULL
124,NULL,NULL,NULL,NULL,NULL,NULL,NULL,NULL,NULL,2514,21,206097,html-slider-response,NULL,38,NULL,NULL
125,NULL,NULL,NULL,NULL,NULL,NULL,NULL,NULL,NULL,6735,0,6740,html-keyboard-response,NULL,NULL,NULL,NULL
126,13,Array,1.2,1,3,0,3,1,1,NULL,1,81955,pong,NULL,NULL,NULL,NULL
127,NULL,NULL,NULL,NULL,NULL,NULL,NULL,NULL,NULL,2536,2,84492,html-keyboard-response,NULL,NULL,NULL,NULL
128,15,Array,1.9,1,0,0,2,NULL,1,NULL,3,105489,pong,NULL,NULL,NULL,NULL
129,NULL,NULL,NULL,NULL,NULL,NULL,NULL,NULL,NULL,NULL,4,105492,call-function,NULL,NULL,NULL,NULL
130,NULL,NULL,NULL,NULL,NULL,NULL,NULL,NULL,NULL,1673,5,107167,html-keyboard-response,NULL,NULL,NULL,NULL
131,13,Array,0.5,1,0,0,1,NULL,1,NULL,6,124774,pong,NULL,NULL,NULL,NULL
132,NULL,NULL,NULL,NULL,NULL,NULL,NULL,NULL,NULL,1076,7,125857,html-keyboard-response,NULL,NULL,NULL,NULL
133,15,Array,1.9,1,2,1,1,NULL,NULL,NULL,8,144741,pong,NULL,NULL,NULL,NULL
134,NULL,NULL,NULL,NULL,NULL,NULL,NULL,NULL,NULL,2167,9,146912,html-button-response,0,NULL,NULL,NULL
135,NULL,NULL,NULL,NULL,NULL,NULL,NULL,NULL,NULL,1305,10,148219,html-button-response,2,NULL,NULL,NULL
136,NULL,NULL,NULL,NULL,NULL,NULL,NULL,NULL,NULL,3513,11,151736,html-slider-response,NULL,40,NULL,NULL
137,NULL,NULL,NULL,NULL,NULL,NULL,NULL,NULL,NULL,NULL,12,151739,call-function,NULL,NULL,NULL,NULL
138,15,Array,1.9,1,4,0,2,NULL,NULL,NULL,13,171960,pong,NULL,NULL,NULL,NULL
139,NULL,NULL,NULL,NULL,NULL,NULL,NULL,NULL,NULL,1783,14,173744,html-button-response,1,NULL,NULL,NULL
140,NULL,NULL,NULL,NULL,NULL,NULL,NULL,NULL,NULL,839,15,174586,html-button-response,1,NULL,NULL,NULL
141,NULL,NULL,NULL,NULL,NULL,NULL,NULL,NULL,NULL,894,16,175484,html-slider-response,NULL,50,NULL,NULL
142,NULL,NULL,NULL,NULL,NULL,NULL,NULL,NULL,NULL,NULL,17,175486,call-function,NULL,NULL,NULL,NULL
143,15,Array,1.2,1,5,1,1,NULL,NULL,NULL,18,198361,pong,NULL,NULL,NULL,NULL
144,NULL,NULL,NULL,NULL,NULL,NULL,NULL,NULL,NULL,3803,19,202166,html-button-response,0,NULL,NULL,NULL
145,NULL,NULL,NULL,NULL,NULL,NULL,NULL,NULL,NULL,1412,20,203580,html-button-response,2,NULL,NULL,NULL
146,NULL,NULL,NULL,NULL,NULL,NULL,NULL,NULL,NULL,2514,21,206097,html-slider-response,NULL,38,NULL,NULL
147,NULL,NULL,NULL,NULL,NULL,NULL,NULL,NULL,NULL,NULL,22,206099,call-function,NULL,NULL,NULL,NULL
148,15,Array,1.2,1,7,0,1,NULL,NULL,NULL,23,225463,pong,NULL,NULL,NULL,NULL
149,NULL,NULL,NULL,NULL,NULL,NULL,NULL,NULL,NULL,1936,24,227402,html-button-response,1,NULL,NULL,NULL
150,NULL,NULL,NULL,NULL,NULL,NULL,NULL,NULL,NULL,515,25,227918,html-button-response,1,NULL,NULL,NULL
151,NULL,NULL,NULL,NULL,NULL,NULL,NULL,NULL,NULL,1726,26,229647,html-slider-response,NULL,60,NULL,NULL
152,NULL,NULL,NULL,NULL,NULL,NULL,NULL,NULL,NULL,6735,0,6740,html-keyboard-response,NULL,NULL,NULL,NULL
153,13,Array,1.2,1,3,0,3,1,1,NULL,1,81955,pong,NULL,NULL,NULL,NULL
154,NULL,NULL,NULL,NULL,NULL,NULL,NULL,NULL,NULL,2536,2,84492,html-keyboard-response,NULL,NULL,NULL,NULL
155,15,Array,1.9,1,0,0,2,NULL,1,NULL,3,105489,pong,NULL,NULL,NULL,NULL
156,NULL,NULL,NULL,NULL,NULL,NULL,NULL,NULL,NULL,NULL,4,105492,call-function,NULL,NULL,NULL,NULL
157,NULL,NULL,NULL,NULL,NULL,NULL,NULL,NULL,NULL,1673,5,107167,html-keyboard-response,NULL,NULL,NULL,NULL
158,13,Array,0.5,1,0,0,1,NULL,1,NULL,6,124774,pong,NULL,NULL,NULL,NULL
159,NULL,NULL,NULL,NULL,NULL,NULL,NULL,NULL,NULL,1076,7,125857,html-keyboard-response,NULL,NULL,NULL,NULL
160,15,Array,1.9,1,2,1,1,NULL,NULL,NULL,8,144741,pong,NULL,NULL,NULL,NULL
161,NULL,NULL,NULL,NULL,NULL,NULL,NULL,NULL,NULL,2167,9,146912,html-button-response,0,NULL,NULL,NULL
162,NULL,NULL,NULL,NULL,NULL,NULL,NULL,NULL,NULL,1305,10,148219,html-button-response,2,NULL,NULL,NULL
163,NULL,NULL,NULL,NULL,NULL,NULL,NULL,NULL,NULL,3513,11,151736,html-slider-response,NULL,40,NULL,NULL
164,NULL,NULL,NULL,NULL,NULL,NULL,NULL,NULL,NULL,NULL,12,151739,call-function,NULL,NULL,NULL,NULL
165,15,Array,1.9,1,4,0,2,NULL,NULL,NULL,13,171960,pong,NULL,NULL,NULL,NULL
166,NULL,NULL,NULL,NULL,NULL,NULL,NULL,NULL,NULL,1783,14,173744,html-button-response,1,NULL,NULL,NULL
167,NULL,NULL,NULL,NULL,NULL,NULL,NULL,NULL,NULL,839,15,174586,html-button-response,1,NULL,NULL,NULL
168,NULL,NULL,NULL,NULL,NULL,NULL,NULL,NULL,NULL,894,16,175484,html-slider-response,NULL,50,NULL,NULL
169,NULL,NULL,NULL,NULL,NULL,NULL,NULL,NULL,NULL,NULL,17,175486,call-function,NULL,NULL,NULL,NULL
170,15,Array,1.2,1,5,1,1,NULL,NULL,NULL,18,198361,pong,NULL,NULL,NULL,NULL
171,NULL,NULL,NULL,NULL,NULL,NULL,NULL,NULL,NULL,3803,19,202166,html-button-response,0,NULL,NULL,NULL
172,NULL,NULL,NULL,NULL,NULL,NULL,NULL,NULL,NULL,1412,20,203580,html-button-response,2,NULL,NULL,NULL
173,NULL,NULL,NULL,NULL,NULL,NULL,NULL,NULL,NULL,2514,21,206097,html-slider-response,NULL,38,NULL,NULL
174,NULL,NULL,NULL,NULL,NULL,NULL,NULL,NULL,NULL,NULL,22,206099,call-function,NULL,NULL,NULL,NULL
175,15,Array,1.2,1,7,0,1,NULL,NULL,NULL,23,225463,pong,NULL,NULL,NULL,NULL
176,NULL,NULL,NULL,NULL,NULL,NULL,NULL,NULL,NULL,1936,24,227402,html-button-response,1,NULL,NULL,NULL
177,NULL,NULL,NULL,NULL,NULL,NULL,NULL,NULL,NULL,515,25,227918,html-button-response,1,NULL,NULL,NULL
178,NULL,NULL,NULL,NULL,NULL,NULL,NULL,NULL,NULL,1726,26,229647,html-slider-response,NULL,60,NULL,NULL
179,NULL,NULL,NULL,NULL,NULL,NULL,NULL,NULL,NULL,NULL,27,229650,call-function,NULL,NULL,NULL,NULL
180,17,Array,1.9,1,5,0,2,NULL,NULL,NULL,28,255482,pong,NULL,NULL,NULL,NULL
181,NULL,NULL,NULL,NULL,NULL,NULL,NULL,NULL,NULL,2484,29,257968,html-button-response,1,NULL,NULL,NULL
182,NULL,NULL,NULL,NULL,NULL,NULL,NULL,NULL,NULL,1032,30,259002,html-button-response,1,NULL,NULL,NULL
183,NULL,NULL,NULL,NULL,NULL,NULL,NULL,NULL,NULL,1817,31,260823,html-slider-response,NULL,60,NULL,NULL
184,NULL,NULL,NULL,NULL,NULL,NULL,NULL,NULL,NULL,6735,0,6740,html-keyboard-response,NULL,NULL,NULL,NULL
185,13,Array,1.2,1,3,0,3,1,1,NULL,1,81955,pong,NULL,NULL,NULL,NULL
186,NULL,NULL,NULL,NULL,NULL,NULL,NULL,NULL,NULL,2536,2,84492,html-keyboard-response,NULL,NULL,NULL,NULL
187,15,Array,1.9,1,0,0,2,NULL,1,NULL,3,105489,pong,NULL,NULL,NULL,NULL
188,NULL,NULL,NULL,NULL,NULL,NULL,NULL,NULL,NULL,NULL,4,105492,call-function,NULL,NULL,NULL,NULL
189,NULL,NULL,NULL,NULL,NULL,NULL,NULL,NULL,NULL,1673,5,107167,html-keyboard-response,NULL,NULL,NULL,NULL
190,13,Array,0.5,1,0,0,1,NULL,1,NULL,6,124774,pong,NULL,NULL,NULL,NULL
191,NULL,NULL,NULL,NULL,NULL,NULL,NULL,NULL,NULL,1076,7,125857,html-keyboard-response,NULL,NULL,NULL,NULL
192,15,Array,1.9,1,2,1,1,NULL,NULL,NULL,8,144741,pong,NULL,NULL,NULL,NULL
193,NULL,NULL,NULL,NULL,NULL,NULL,NULL,NULL,NULL,2167,9,146912,html-button-response,0,NULL,NULL,NULL
194,NULL,NULL,NULL,NULL,NULL,NULL,NULL,NULL,NULL,1305,10,148219,html-button-response,2,NULL,NULL,NULL
195,NULL,NULL,NULL,NULL,NULL,NULL,NULL,NULL,NULL,3513,11,151736,html-slider-response,NULL,40,NULL,NULL
196,NULL,NULL,NULL,NULL,NULL,NULL,NULL,NULL,NULL,NULL,12,151739,call-function,NULL,NULL,NULL,NULL
197,15,Array,1.9,1,4,0,2,NULL,NULL,NULL,13,171960,pong,NULL,NULL,NULL,NULL
198,NULL,NULL,NULL,NULL,NULL,NULL,NULL,NULL,NULL,1783,14,173744,html-button-response,1,NULL,NULL,NULL
199,NULL,NULL,NULL,NULL,NULL,NULL,NULL,NULL,NULL,839,15,174586,html-button-response,1,NULL,NULL,NULL
200,NULL,NULL,NULL,NULL,NULL,NULL,NULL,NULL,NULL,894,16,175484,html-slider-response,NULL,50,NULL,NULL
201,NULL,NULL,NULL,NULL,NULL,NULL,NULL,NULL,NULL,NULL,17,175486,call-function,NULL,NULL,NULL,NULL
202,15,Array,1.2,1,5,1,1,NULL,NULL,NULL,18,198361,pong,NULL,NULL,NULL,NULL
203,NULL,NULL,NULL,NULL,NULL,NULL,NULL,NULL,NULL,3803,19,202166,html-button-response,0,NULL,NULL,NULL
204,NULL,NULL,NULL,NULL,NULL,NULL,NULL,NULL,NULL,1412,20,203580,html-button-response,2,NULL,NULL,NULL
205,NULL,NULL,NULL,NULL,NULL,NULL,NULL,NULL,NULL,2514,21,206097,html-slider-response,NULL,38,NULL,NULL
206,NULL,NULL,NULL,NULL,NULL,NULL,NULL,NULL,NULL,NULL,22,206099,call-function,NULL,NULL,NULL,NULL
207,15,Array,1.2,1,7,0,1,NULL,NULL,NULL,23,225463,pong,NULL,NULL,NULL,NULL
208,NULL,NULL,NULL,NULL,NULL,NULL,NULL,NULL,NULL,1936,24,227402,html-button-response,1,NULL,NULL,NULL
209,NULL,NULL,NULL,NULL,NULL,NULL,NULL,NULL,NULL,515,25,227918,html-button-response,1,NULL,NULL,NULL
210,NULL,NULL,NULL,NULL,NULL,NULL,NULL,NULL,NULL,1726,26,229647,html-slider-response,NULL,60,NULL,NULL
211,NULL,NULL,NULL,NULL,NULL,NULL,NULL,NULL,NULL,NULL,27,229650,call-function,NULL,NULL,NULL,NULL
212,17,Array,1.9,1,5,0,2,NULL,NULL,NULL,28,255482,pong,NULL,NULL,NULL,NULL
213,NULL,NULL,NULL,NULL,NULL,NULL,NULL,NULL,NULL,2484,29,257968,html-button-response,1,NULL,NULL,NULL
214,NULL,NULL,NULL,NULL,NULL,NULL,NULL,NULL,NULL,1032,30,259002,html-button-response,1,NULL,NULL,NULL
215,NULL,NULL,NULL,NULL,NULL,NULL,NULL,NULL,NULL,1817,31,260823,html-slider-response,NULL,60,NULL,NULL
216,NULL,NULL,NULL,NULL,NULL,NULL,NULL,NULL,NULL,NULL,32,260825,call-function,NULL,NULL,NULL,NULL
217,15,Array,0.5,1,2,2,1,NULL,NULL,NULL,33,276850,pong,NULL,NULL,NULL,NULL
218,NULL,NULL,NULL,NULL,NULL,NULL,NULL,NULL,NULL,1814,34,278666,html-button-response,0,NULL,NULL,NULL
219,NULL,NULL,NULL,NULL,NULL,NULL,NULL,NULL,NULL,1250,35,279918,html-button-response,2,NULL,NULL,NULL
220,NULL,NULL,NULL,NULL,NULL,NULL,NULL,NULL,NULL,2310,36,282230,html-slider-response,NULL,28,NULL,NULL
221,NULL,NULL,NULL,NULL,NULL,NULL,NULL,NULL,NULL,6735,0,6740,html-keyboard-response,NULL,NULL,NULL,NULL
222,13,Array,1.2,1,3,0,3,1,1,NULL,1,81955,pong,NULL,NULL,NULL,NULL
223,NULL,NULL,NULL,NULL,NULL,NULL,NULL,NULL,NULL,2536,2,84492,html-keyboard-response,NULL,NULL,NULL,NULL
224,15,Array,1.9,1,0,0,2,NULL,1,NULL,3,105489,pong,NULL,NULL,NULL,NULL
225,NULL,NULL,NULL,NULL,NULL,NULL,NULL,NULL,NULL,NULL,4,105492,call-function,NULL,NULL,NULL,NULL
226,NULL,NULL,NULL,NULL,NULL,NULL,NULL,NULL,NULL,1673,5,107167,html-keyboard-response,NULL,NULL,NULL,NULL
227,13,Array,0.5,1,0,0,1,NULL,1,NULL,6,124774,pong,NULL,NULL,NULL,NULL
228,NULL,NULL,NULL,NULL,NULL,NULL,NULL,NULL,NULL,1076,7,125857,html-keyboard-response,NULL,NULL,NULL,NULL
229,15,Array,1.9,1,2,1,1,NULL,NULL,NULL,8,144741,pong,NULL,NULL,NULL,NULL
230,NULL,NULL,NULL,NULL,NULL,NULL,NULL,NULL,NULL,2167,9,146912,html-button-response,0,NULL,NULL,NULL
231,NULL,NULL,NULL,NULL,NULL,NULL,NULL,NULL,NULL,1305,10,148219,html-button-response,2,NULL,NULL,NULL
232,NULL,NULL,NULL,NULL,NULL,NULL,NULL,NULL,NULL,3513,11,151736,html-slider-response,NULL,40,NULL,NULL
233,NULL,NULL,NULL,NULL,NULL,NULL,NULL,NULL,NULL,NULL,12,151739,call-function,NULL,NULL,NULL,NULL
234,15,Array,1.9,1,4,0,2,NULL,NULL,NULL,13,171960,pong,NULL,NULL,NULL,NULL
235,NULL,NULL,NULL,NULL,NULL,NULL,NULL,NULL,NULL,1783,14,173744,html-button-response,1,NULL,NULL,NULL
236,NULL,NULL,NULL,NULL,NULL,NULL,NULL,NULL,NULL,839,15,174586,html-button-response,1,NULL,NULL,NULL
237,NULL,NULL,NULL,NULL,NULL,NULL,NULL,NULL,NULL,894,16,175484,html-slider-response,NULL,50,NULL,NULL
238,NULL,NULL,NULL,NULL,NULL,NULL,NULL,NULL,NULL,NULL,17,175486,call-function,NULL,NULL,NULL,NULL
239,15,Array,1.2,1,5,1,1,NULL,NULL,NULL,18,198361,pong,NULL,NULL,NULL,NULL
240,NULL,NULL,NULL,NULL,NULL,NULL,NULL,NULL,NULL,3803,19,202166,html-button-response,0,NULL,NULL,NULL
241,NULL,NULL,NULL,NULL,NULL,NULL,NULL,NULL,NULL,1412,20,203580,html-button-response,2,NULL,NULL,NULL
242,NULL,NULL,NULL,NULL,NULL,NULL,NULL,NULL,NULL,2514,21,206097,html-slider-response,NULL,38,NULL,NULL
243,NULL,NULL,NULL,NULL,NULL,NULL,NULL,NULL,NULL,NULL,22,206099,call-function,NULL,NULL,NULL,NULL
244,15,Array,1.2,1,7,0,1,NULL,NULL,NULL,23,225463,pong,NULL,NULL,NULL,NULL
245,NULL,NULL,NULL,NULL,NULL,NULL,NULL,NULL,NULL,1936,24,227402,html-button-response,1,NULL,NULL,NULL
246,NULL,NULL,NULL,NULL,NULL,NULL,NULL,NULL,NULL,515,25,227918,html-button-response,1,NULL,NULL,NULL
247,NULL,NULL,NULL,NULL,NULL,NULL,NULL,NULL,NULL,1726,26,229647,html-slider-response,NULL,60,NULL,NULL
248,NULL,NULL,NULL,NULL,NULL,NULL,NULL,NULL,NULL,NULL,27,229650,call-function,NULL,NULL,NULL,NULL
249,17,Array,1.9,1,5,0,2,NULL,NULL,NULL,28,255482,pong,NULL,NULL,NULL,NULL
250,NULL,NULL,NULL,NULL,NULL,NULL,NULL,NULL,NULL,2484,29,257968,html-button-response,1,NULL,NULL,NULL
251,NULL,NULL,NULL,NULL,NULL,NULL,NULL,NULL,NULL,1032,30,259002,html-button-response,1,NULL,NULL,NULL
252,NULL,NULL,NULL,NULL,NULL,NULL,NULL,NULL,NULL,1817,31,260823,html-slider-response,NULL,60,NULL,NULL
253,NULL,NULL,NULL,NULL,NULL,NULL,NULL,NULL,NULL,NULL,32,260825,call-function,NULL,NULL,NULL,NULL
254,15,Array,0.5,1,2,2,1,NULL,NULL,NULL,33,276850,pong,NULL,NULL,NULL,NULL
255,NULL,NULL,NULL,NULL,NULL,NULL,NULL,NULL,NULL,1814,34,278666,html-button-response,0,NULL,NULL,NULL
256,NULL,NULL,NULL,NULL,NULL,NULL,NULL,NULL,NULL,1250,35,279918,html-button-response,2,NULL,NULL,NULL
257,NULL,NULL,NULL,NULL,NULL,NULL,NULL,NULL,NULL,2310,36,282230,html-slider-response,NULL,28,NULL,NULL
258,NULL,NULL,NULL,NULL,NULL,NULL,NULL,NULL,NULL,NULL,37,282233,call-function,NULL,NULL,NULL,NULL
259,17,Array,1.2,1,0,2,2,NULL,NULL,NULL,38,300518,pong,NULL,NULL,NULL,NULL
260,NULL,NULL,NULL,NULL,NULL,NULL,NULL,NULL,NULL,1542,39,302062,html-button-response,1,NULL,NULL,NULL
261,NULL,NULL,NULL,NULL,NULL,NULL,NULL,NULL,NULL,530,40,302594,html-button-response,1,NULL,NULL,NULL
262,NULL,NULL,NULL,NULL,NULL,NULL,NULL,NULL,NULL,1098,41,303695,html-slider-response,NULL,50,NULL,NULL
263,NULL,NULL,NULL,NULL,NULL,NULL,NULL,NULL,NULL,6735,0,6740,html-keyboard-response,NULL,NULL,NULL,NULL
264,13,Array,1.2,1,3,0,3,1,1,NULL,1,81955,pong,NULL,NULL,NULL,NULL
265,NULL,NULL,NULL,NULL,NULL,NULL,NULL,NULL,NULL,2536,2,84492,html-keyboard-response,NULL,NULL,NULL,NULL
266,15,Array,1.9,1,0,0,2,NULL,1,NULL,3,105489,pong,NULL,NULL,NULL,NULL
267,NULL,NULL,NULL,NULL,NULL,NULL,NULL,NULL,NULL,NULL,4,105492,call-function,NULL,NULL,NULL,NULL
268,NULL,NULL,NULL,NULL,NULL,NULL,NULL,NULL,NULL,1673,5,107167,html-keyboard-response,NULL,NULL,NULL,NULL
269,13,Array,0.5,1,0,0,1,NULL,1,NULL,6,124774,pong,NULL,NULL,NULL,NULL
270,NULL,NULL,NULL,NULL,NULL,NULL,NULL,NULL,NULL,1076,7,125857,html-keyboard-response,NULL,NULL,NULL,NULL
271,15,Array,1.9,1,2,1,1,NULL,NULL,NULL,8,144741,pong,NULL,NULL,NULL,NULL
272,NULL,NULL,NULL,NULL,NULL,NULL,NULL,NULL,NULL,2167,9,146912,html-button-response,0,NULL,NULL,NULL
273,NULL,NULL,NULL,NULL,NULL,NULL,NULL,NULL,NULL,1305,10,148219,html-button-response,2,NULL,NULL,NULL
274,NULL,NULL,NULL,NULL,NULL,NULL,NULL,NULL,NULL,3513,11,151736,html-slider-response,NULL,40,NULL,NULL
275,NULL,NULL,NULL,NULL,NULL,NULL,NULL,NULL,NULL,NULL,12,151739,call-function,NULL,NULL,NULL,NULL
276,15,Array,1.9,1,4,0,2,NULL,NULL,NULL,13,171960,pong,NULL,NULL,NULL,NULL
277,NULL,NULL,NULL,NULL,NULL,NULL,NULL,NULL,NULL,1783,14,173744,html-button-response,1,NULL,NULL,NULL
278,NULL,NULL,NULL,NULL,NULL,NULL,NULL,NULL,NULL,839,15,174586,html-button-response,1,NULL,NULL,NULL
279,NULL,NULL,NULL,NULL,NULL,NULL,NULL,NULL,NULL,894,16,175484,html-slider-response,NULL,50,NULL,NULL
280,NULL,NULL,NULL,NULL,NULL,NULL,NULL,NULL,NULL,NULL,17,175486,call-function,NULL,NULL,NULL,NULL
281,15,Array,1.2,1,5,1,1,NULL,NULL,NULL,18,198361,pong,NULL,NULL,NULL,NULL
282,NULL,NULL,NULL,NULL,NULL,NULL,NULL,NULL,NULL,3803,19,202166,html-button-response,0,NULL,NULL,NULL
283,NULL,NULL,NULL,NULL,NULL,NULL,NULL,NULL,NULL,1412,20,203580,html-button-response,2,NULL,NULL,NULL
284,NULL,NULL,NULL,NULL,NULL,NULL,NULL,NULL,NULL,2514,21,206097,html-slider-response,NULL,38,NULL,NULL
285,NULL,NULL,NULL,NULL,NULL,NULL,NULL,NULL,NULL,NULL,22,206099,call-function,NULL,NULL,NULL,NULL
286,15,Array,1.2,1,7,0,1,NULL,NULL,NULL,23,225463,pong,NULL,NULL,NULL,NULL
287,NULL,NULL,NULL,NULL,NULL,NULL,NULL,NULL,NULL,1936,24,227402,html-button-response,1,NULL,NULL,NULL
288,NULL,NULL,NULL,NULL,NULL,NULL,NULL,NULL,NULL,515,25,227918,html-button-response,1,NULL,NULL,NULL
289,NULL,NULL,NULL,NULL,NULL,NULL,NULL,NULL,NULL,1726,26,229647,html-slider-response,NULL,60,NULL,NULL
290,NULL,NULL,NULL,NULL,NULL,NULL,NULL,NULL,NULL,NULL,27,229650,call-function,NULL,NULL,NULL,NULL
291,17,Array,1.9,1,5,0,2,NULL,NULL,NULL,28,255482,pong,NULL,NULL,NULL,NULL
292,NULL,NULL,NULL,NULL,NULL,NULL,NULL,NULL,NULL,2484,29,257968,html-button-response,1,NULL,NULL,NULL
293,NULL,NULL,NULL,NULL,NULL,NULL,NULL,NULL,NULL,1032,30,259002,html-button-response,1,NULL,NULL,NULL
294,NULL,NULL,NULL,NULL,NULL,NULL,NULL,NULL,NULL,1817,31,260823,html-slider-response,NULL,60,NULL,NULL
295,NULL,NULL,NULL,NULL,NULL,NULL,NULL,NULL,NULL,NULL,32,260825,call-function,NULL,NULL,NULL,NULL
296,15,Array,0.5,1,2,2,1,NULL,NULL,NULL,33,276850,pong,NULL,NULL,NULL,NULL
297,NULL,NULL,NULL,NULL,NULL,NULL,NULL,NULL,NULL,1814,34,278666,html-button-response,0,NULL,NULL,NULL
298,NULL,NULL,NULL,NULL,NULL,NULL,NULL,NULL,NULL,1250,35,279918,html-button-response,2,NULL,NULL,NULL
299,NULL,NULL,NULL,NULL,NULL,NULL,NULL,NULL,NULL,2310,36,282230,html-slider-response,NULL,28,NULL,NULL
300,NULL,NULL,NULL,NULL,NULL,NULL,NULL,NULL,NULL,NULL,37,282233,call-function,NULL,NULL,NULL,NULL
301,17,Array,1.2,1,0,2,2,NULL,NULL,NULL,38,300518,pong,NULL,NULL,NULL,NULL
302,NULL,NULL,NULL,NULL,NULL,NULL,NULL,NULL,NULL,1542,39,302062,html-button-response,1,NULL,NULL,NULL
303,NULL,NULL,NULL,NULL,NULL,NULL,NULL,NULL,NULL,530,40,302594,html-button-response,1,NULL,NULL,NULL
304,NULL,NULL,NULL,NULL,NULL,NULL,NULL,NULL,NULL,1098,41,303695,html-slider-response,NULL,50,NULL,NULL
305,NULL,NULL,NULL,NULL,NULL,NULL,NULL,NULL,NULL,NULL,42,303699,call-function,NULL,NULL,NULL,NULL
306,15,Array,0.5,1,2,1,1,NULL,NULL,NULL,43,322051,pong,NULL,NULL,NULL,NULL
307,NULL,NULL,NULL,NULL,NULL,NULL,NULL,NULL,NULL,3024,44,325077,html-button-response,0,NULL,NULL,NULL
308,NULL,NULL,NULL,NULL,NULL,NULL,NULL,NULL,NULL,875,45,325955,html-button-response,2,NULL,NULL,NULL
309,NULL,NULL,NULL,NULL,NULL,NULL,NULL,NULL,NULL,2038,46,327995,html-slider-response,NULL,30,NULL,NULL
310,NULL,NULL,NULL,NULL,NULL,NULL,NULL,NULL,NULL,6735,0,6740,html-keyboard-response,NULL,NULL,NULL,NULL
311,13,Array,1.2,1,3,0,3,1,1,NULL,1,81955,pong,NULL,NULL,NULL,NULL
312,NULL,NULL,NULL,NULL,NULL,NULL,NULL,NULL,NULL,2536,2,84492,html-keyboard-response,NULL,NULL,NULL,NULL
313,15,Array,1.9,1,0,0,2,NULL,1,NULL,3,105489,pong,NULL,NULL,NULL,NULL
314,NULL,NULL,NULL,NULL,NULL,NULL,NULL,NULL,NULL,NULL,4,105492,call-function,NULL,NULL,NULL,NULL
315,NULL,NULL,NULL,NULL,NULL,NULL,NULL,NULL,NULL,1673,5,107167,html-keyboard-response,NULL,NULL,NULL,NULL
316,13,Array,0.5,1,0,0,1,NULL,1,NULL,6,124774,pong,NULL,NULL,NULL,NULL
317,NULL,NULL,NULL,NULL,NULL,NULL,NULL,NULL,NULL,1076,7,125857,html-keyboard-response,NULL,NULL,NULL,NULL
318,15,Array,1.9,1,2,1,1,NULL,NULL,NULL,8,144741,pong,NULL,NULL,NULL,NULL
319,NULL,NULL,NULL,NULL,NULL,NULL,NULL,NULL,NULL,2167,9,146912,html-button-response,0,NULL,NULL,NULL
320,NULL,NULL,NULL,NULL,NULL,NULL,NULL,NULL,NULL,1305,10,148219,html-button-response,2,NULL,NULL,NULL
321,NULL,NULL,NULL,NULL,NULL,NULL,NULL,NULL,NULL,3513,11,151736,html-slider-response,NULL,40,NULL,NULL
322,NULL,NULL,NULL,NULL,NULL,NULL,NULL,NULL,NULL,NULL,12,151739,call-function,NULL,NULL,NULL,NULL
323,15,Array,1.9,1,4,0,2,NULL,NULL,NULL,13,171960,pong,NULL,NULL,NULL,NULL
324,NULL,NULL,NULL,NULL,NULL,NULL,NULL,NULL,NULL,1783,14,173744,html-button-response,1,NULL,NULL,NULL
325,NULL,NULL,NULL,NULL,NULL,NULL,NULL,NULL,NULL,839,15,174586,html-button-response,1,NULL,NULL,NULL
326,NULL,NULL,NULL,NULL,NULL,NULL,NULL,NULL,NULL,894,16,175484,html-slider-response,NULL,50,NULL,NULL
327,NULL,NULL,NULL,NULL,NULL,NULL,NULL,NULL,NULL,NULL,17,175486,call-function,NULL,NULL,NULL,NULL
328,15,Array,1.2,1,5,1,1,NULL,NULL,NULL,18,198361,pong,NULL,NULL,NULL,NULL
329,NULL,NULL,NULL,NULL,NULL,NULL,NULL,NULL,NULL,3803,19,202166,html-button-response,0,NULL,NULL,NULL
330,NULL,NULL,NULL,NULL,NULL,NULL,NULL,NULL,NULL,1412,20,203580,html-button-response,2,NULL,NULL,NULL
331,NULL,NULL,NULL,NULL,NULL,NULL,NULL,NULL,NULL,2514,21,206097,html-slider-response,NULL,38,NULL,NULL
332,NULL,NULL,NULL,NULL,NULL,NULL,NULL,NULL,NULL,NULL,22,206099,call-function,NULL,NULL,NULL,NULL
333,15,Array,1.2,1,7,0,1,NULL,NULL,NULL,23,225463,pong,NULL,NULL,NULL,NULL
334,NULL,NULL,NULL,NULL,NULL,NULL,NULL,NULL,NULL,1936,24,227402,html-button-response,1,NULL,NULL,NULL
335,NULL,NULL,NULL,NULL,NULL,NULL,NULL,NULL,NULL,515,25,227918,html-button-response,1,NULL,NULL,NULL
336,NULL,NULL,NULL,NULL,NULL,NULL,NULL,NULL,NULL,1726,26,229647,html-slider-response,NULL,60,NULL,NULL
337,NULL,NULL,NULL,NULL,NULL,NULL,NULL,NULL,NULL,NULL,27,229650,call-function,NULL,NULL,NULL,NULL
338,17,Array,1.9,1,5,0,2,NULL,NULL,NULL,28,255482,pong,NULL,NULL,NULL,NULL
339,NULL,NULL,NULL,NULL,NULL,NULL,NULL,NULL,NULL,2484,29,257968,html-button-response,1,NULL,NULL,NULL
340,NULL,NULL,NULL,NULL,NULL,NULL,NULL,NULL,NULL,1032,30,259002,html-button-response,1,NULL,NULL,NULL
341,NULL,NULL,NULL,NULL,NULL,NULL,NULL,NULL,NULL,1817,31,260823,html-slider-response,NULL,60,NULL,NULL
342,NULL,NULL,NULL,NULL,NULL,NULL,NULL,NULL,NULL,NULL,32,260825,call-function,NULL,NULL,NULL,NULL
343,15,Array,0.5,1,2,2,1,NULL,NULL,NULL,33,276850,pong,NULL,NULL,NULL,NULL
344,NULL,NULL,NULL,NULL,NULL,NULL,NULL,NULL,NULL,1814,34,278666,html-button-response,0,NULL,NULL,NULL
345,NULL,NULL,NULL,NULL,NULL,NULL,NULL,NULL,NULL,1250,35,279918,html-button-response,2,NULL,NULL,NULL
346,NULL,NULL,NULL,NULL,NULL,NULL,NULL,NULL,NULL,2310,36,282230,html-slider-response,NULL,28,NULL,NULL
347,NULL,NULL,NULL,NULL,NULL,NULL,NULL,NULL,NULL,NULL,37,282233,call-function,NULL,NULL,NULL,NULL
348,17,Array,1.2,1,0,2,2,NULL,NULL,NULL,38,300518,pong,NULL,NULL,NULL,NULL
349,NULL,NULL,NULL,NULL,NULL,NULL,NULL,NULL,NULL,1542,39,302062,html-button-response,1,NULL,NULL,NULL
350,NULL,NULL,NULL,NULL,NULL,NULL,NULL,NULL,NULL,530,40,302594,html-button-response,1,NULL,NULL,NULL
351,NULL,NULL,NULL,NULL,NULL,NULL,NULL,NULL,NULL,1098,41,303695,html-slider-response,NULL,50,NULL,NULL
352,NULL,NULL,NULL,NULL,NULL,NULL,NULL,NULL,NULL,NULL,42,303699,call-function,NULL,NULL,NULL,NULL
353,15,Array,0.5,1,2,1,1,NULL,NULL,NULL,43,322051,pong,NULL,NULL,NULL,NULL
354,NULL,NULL,NULL,NULL,NULL,NULL,NULL,NULL,NULL,3024,44,325077,html-button-response,0,NULL,NULL,NULL
355,NULL,NULL,NULL,NULL,NULL,NULL,NULL,NULL,NULL,875,45,325955,html-button-response,2,NULL,NULL,NULL
356,NULL,NULL,NULL,NULL,NULL,NULL,NULL,NULL,NULL,2038,46,327995,html-slider-response,NULL,30,NULL,NULL
357,NULL,NULL,NULL,NULL,NULL,NULL,NULL,NULL,NULL,NULL,47,327997,call-function,NULL,NULL,NULL,NULL
358,15,Array,1.9,1,1,3,3,NULL,NULL,NULL,48,347604,pong,NULL,NULL,NULL,NULL
359,NULL,NULL,NULL,NULL,NULL,NULL,NULL,NULL,NULL,2106,49,349712,html-button-response,1,NULL,NULL,NULL
360,NULL,NULL,NULL,NULL,NULL,NULL,NULL,NULL,NULL,483,50,350198,html-button-response,1,NULL,NULL,NULL
361,NULL,NULL,NULL,NULL,NULL,NULL,NULL,NULL,NULL,1276,51,351477,html-slider-response,NULL,50,NULL,NULL
362,NULL,NULL,NULL,NULL,NULL,NULL,NULL,NULL,NULL,6735,0,6740,html-keyboard-response,NULL,NULL,NULL,NULL
363,13,Array,1.2,1,3,0,3,1,1,NULL,1,81955,pong,NULL,NULL,NULL,NULL
364,NULL,NULL,NULL,NULL,NULL,NULL,NULL,NULL,NULL,2536,2,84492,html-keyboard-response,NULL,NULL,NULL,NULL
365,15,Array,1.9,1,0,0,2,NULL,1,NULL,3,105489,pong,NULL,NULL,NULL,NULL
366,NULL,NULL,NULL,NULL,NULL,NULL,NULL,NULL,NULL,NULL,4,105492,call-function,NULL,NULL,NULL,NULL
367,NULL,NULL,NULL,NULL,NULL,NULL,NULL,NULL,NULL,1673,5,107167,html-keyboard-response,NULL,NULL,NULL,NULL
368,13,Array,0.5,1,0,0,1,NULL,1,NULL,6,124774,pong,NULL,NULL,NULL,NULL
369,NULL,NULL,NULL,NULL,NULL,NULL,NULL,NULL,NULL,1076,7,125857,html-keyboard-response,NULL,NULL,NULL,NULL
370,15,Array,1.9,1,2,1,1,NULL,NULL,NULL,8,144741,pong,NULL,NULL,NULL,NULL
371,NULL,NULL,NULL,NULL,NULL,NULL,NULL,NULL,NULL,2167,9,146912,html-button-response,0,NULL,NULL,NULL
372,NULL,NULL,NULL,NULL,NULL,NULL,NULL,NULL,NULL,1305,10,148219,html-button-response,2,NULL,NULL,NULL
373,NULL,NULL,NULL,NULL,NULL,NULL,NULL,NULL,NULL,3513,11,151736,html-slider-response,NULL,40,NULL,NULL
374,NULL,NULL,NULL,NULL,NULL,NULL,NULL,NULL,NULL,NULL,12,151739,call-function,NULL,NULL,NULL,NULL
375,15,Array,1.9,1,4,0,2,NULL,NULL,NULL,13,171960,pong,NULL,NULL,NULL,NULL
376,NULL,NULL,NULL,NULL,NULL,NULL,NULL,NULL,NULL,1783,14,173744,html-button-response,1,NULL,NULL,NULL
377,NULL,NULL,NULL,NULL,NULL,NULL,NULL,NULL,NULL,839,15,174586,html-button-response,1,NULL,NULL,NULL
378,NULL,NULL,NULL,NULL,NULL,NULL,NULL,NULL,NULL,894,16,175484,html-slider-response,NULL,50,NULL,NULL
379,NULL,NULL,NULL,NULL,NULL,NULL,NULL,NULL,NULL,NULL,17,175486,call-function,NULL,NULL,NULL,NULL
380,15,Array,1.2,1,5,1,1,NULL,NULL,NULL,18,198361,pong,NULL,NULL,NULL,NULL
381,NULL,NULL,NULL,NULL,NULL,NULL,NULL,NULL,NULL,3803,19,202166,html-button-response,0,NULL,NULL,NULL
382,NULL,NULL,NULL,NULL,NULL,NULL,NULL,NULL,NULL,1412,20,203580,html-button-response,2,NULL,NULL,NULL
383,NULL,NULL,NULL,NULL,NULL,NULL,NULL,NULL,NULL,2514,21,206097,html-slider-response,NULL,38,NULL,NULL
384,NULL,NULL,NULL,NULL,NULL,NULL,NULL,NULL,NULL,NULL,22,206099,call-function,NULL,NULL,NULL,NULL
385,15,Array,1.2,1,7,0,1,NULL,NULL,NULL,23,225463,pong,NULL,NULL,NULL,NULL
386,NULL,NULL,NULL,NULL,NULL,NULL,NULL,NULL,NULL,1936,24,227402,html-button-response,1,NULL,NULL,NULL
387,NULL,NULL,NULL,NULL,NULL,NULL,NULL,NULL,NULL,515,25,227918,html-button-response,1,NULL,NULL,NULL
388,NULL,NULL,NULL,NULL,NULL,NULL,NULL,NULL,NULL,1726,26,229647,html-slider-response,NULL,60,NULL,NULL
389,NULL,NULL,NULL,NULL,NULL,NULL,NULL,NULL,NULL,NULL,27,229650,call-function,NULL,NULL,NULL,NULL
390,17,Array,1.9,1,5,0,2,NULL,NULL,NULL,28,255482,pong,NULL,NULL,NULL,NULL
391,NULL,NULL,NULL,NULL,NULL,NULL,NULL,NULL,NULL,2484,29,257968,html-button-response,1,NULL,NULL,NULL
392,NULL,NULL,NULL,NULL,NULL,NULL,NULL,NULL,NULL,1032,30,259002,html-button-response,1,NULL,NULL,NULL
393,NULL,NULL,NULL,NULL,NULL,NULL,NULL,NULL,NULL,1817,31,260823,html-slider-response,NULL,60,NULL,NULL
394,NULL,NULL,NULL,NULL,NULL,NULL,NULL,NULL,NULL,NULL,32,260825,call-function,NULL,NULL,NULL,NULL
395,15,Array,0.5,1,2,2,1,NULL,NULL,NULL,33,276850,pong,NULL,NULL,NULL,NULL
396,NULL,NULL,NULL,NULL,NULL,NULL,NULL,NULL,NULL,1814,34,278666,html-button-response,0,NULL,NULL,NULL
397,NULL,NULL,NULL,NULL,NULL,NULL,NULL,NULL,NULL,1250,35,279918,html-button-response,2,NULL,NULL,NULL
398,NULL,NULL,NULL,NULL,NULL,NULL,NULL,NULL,NULL,2310,36,282230,html-slider-response,NULL,28,NULL,NULL
399,NULL,NULL,NULL,NULL,NULL,NULL,NULL,NULL,NULL,NULL,37,282233,call-function,NULL,NULL,NULL,NULL
400,17,Array,1.2,1,0,2,2,NULL,NULL,NULL,38,300518,pong,NULL,NULL,NULL,NULL
401,NULL,NULL,NULL,NULL,NULL,NULL,NULL,NULL,NULL,1542,39,302062,html-button-response,1,NULL,NULL,NULL
402,NULL,NULL,NULL,NULL,NULL,NULL,NULL,NULL,NULL,530,40,302594,html-button-response,1,NULL,NULL,NULL
403,NULL,NULL,NULL,NULL,NULL,NULL,NULL,NULL,NULL,1098,41,303695,html-slider-response,NULL,50,NULL,NULL
404,NULL,NULL,NULL,NULL,NULL,NULL,NULL,NULL,NULL,NULL,42,303699,call-function,NULL,NULL,NULL,NULL
405,15,Array,0.5,1,2,1,1,NULL,NULL,NULL,43,322051,pong,NULL,NULL,NULL,NULL
406,NULL,NULL,NULL,NULL,NULL,NULL,NULL,NULL,NULL,3024,44,325077,html-button-response,0,NULL,NULL,NULL
407,NULL,NULL,NULL,NULL,NULL,NULL,NULL,NULL,NULL,875,45,325955,html-button-response,2,NULL,NULL,NULL
408,NULL,NULL,NULL,NULL,NULL,NULL,NULL,NULL,NULL,2038,46,327995,html-slider-response,NULL,30,NULL,NULL
409,NULL,NULL,NULL,NULL,NULL,NULL,NULL,NULL,NULL,NULL,47,327997,call-function,NULL,NULL,NULL,NULL
410,15,Array,1.9,1,1,3,3,NULL,NULL,NULL,48,347604,pong,NULL,NULL,NULL,NULL
411,NULL,NULL,NULL,NULL,NULL,NULL,NULL,NULL,NULL,2106,49,349712,html-button-response,1,NULL,NULL,NULL
412,NULL,NULL,NULL,NULL,NULL,NULL,NULL,NULL,NULL,483,50,350198,html-button-response,1,NULL,NULL,NULL
413,NULL,NULL,NULL,NULL,NULL,NULL,NULL,NULL,NULL,1276,51,351477,html-slider-response,NULL,50,NULL,NULL
414,NULL,NULL,NULL,NULL,NULL,NULL,NULL,NULL,NULL,NULL,52,351479,call-function,NULL,NULL,NULL,NULL
415,13,Array,1.9,1,1,0,2,NULL,NULL,NULL,53,369071,pong,NULL,NULL,NULL,NULL
416,NULL,NULL,NULL,NULL,NULL,NULL,NULL,NULL,NULL,2129,54,371203,html-button-response,2,NULL,NULL,NULL
417,NULL,NULL,NULL,NULL,NULL,NULL,NULL,NULL,NULL,1502,55,372707,html-button-response,0,NULL,NULL,NULL
418,NULL,NULL,NULL,NULL,NULL,NULL,NULL,NULL,NULL,2181,56,374891,html-slider-response,NULL,60,NULL,NULL
419,NULL,NULL,NULL,NULL,NULL,NULL,NULL,NULL,NULL,6735,0,6740,html-keyboard-response,NULL,NULL,NULL,NULL
420,13,Array,1.2,1,3,0,3,1,1,NULL,1,81955,pong,NULL,NULL,NULL,NULL
421,NULL,NULL,NULL,NULL,NULL,NULL,NULL,NULL,NULL,2536,2,84492,html-keyboard-response,NULL,NULL,NULL,NULL
422,15,Array,1.9,1,0,0,2,NULL,1,NULL,3,105489,pong,NULL,NULL,NULL,NULL
423,NULL,NULL,NULL,NULL,NULL,NULL,NULL,NULL,NULL,NULL,4,105492,call-function,NULL,NULL,NULL,NULL
424,NULL,NULL,NULL,NULL,NULL,NULL,NULL,NULL,NULL,1673,5,107167,html-keyboard-response,NULL,NULL,NULL,NULL
425,13,Array,0.5,1,0,0,1,NULL,1,NULL,6,124774,pong,NULL,NULL,NULL,NULL
426,NULL,NULL,NULL,NULL,NULL,NULL,NULL,NULL,NULL,1076,7,125857,html-keyboard-response,NULL,NULL,NULL,NULL
427,15,Array,1.9,1,2,1,1,NULL,NULL,NULL,8,144741,pong,NULL,NULL,NULL,NULL
428,NULL,NULL,NULL,NULL,NULL,NULL,NULL,NULL,NULL,2167,9,146912,html-button-response,0,NULL,NULL,NULL
429,NULL,NULL,NULL,NULL,NULL,NULL,NULL,NULL,NULL,1305,10,148219,html-button-response,2,NULL,NULL,NULL
430,NULL,NULL,NULL,NULL,NULL,NULL,NULL,NULL,NULL,3513,11,151736,html-slider-response,NULL,40,NULL,NULL
431,NULL,NULL,NULL,NULL,NULL,NULL,NULL,NULL,NULL,NULL,12,151739,call-function,NULL,NULL,NULL,NULL
432,15,Array,1.9,1,4,0,2,NULL,NULL,NULL,13,171960,pong,NULL,NULL,NULL,NULL
433,NULL,NULL,NULL,NULL,NULL,NULL,NULL,NULL,NULL,1783,14,173744,html-button-response,1,NULL,NULL,NULL
434,NULL,NULL,NULL,NULL,NULL,NULL,NULL,NULL,NULL,839,15,174586,html-button-response,1,NULL,NULL,NULL
435,NULL,NULL,NULL,NULL,NULL,NULL,NULL,NULL,NULL,894,16,175484,html-slider-response,NULL,50,NULL,NULL
436,NULL,NULL,NULL,NULL,NULL,NULL,NULL,NULL,NULL,NULL,17,175486,call-function,NULL,NULL,NULL,NULL
437,15,Array,1.2,1,5,1,1,NULL,NULL,NULL,18,198361,pong,NULL,NULL,NULL,NULL
438,NULL,NULL,NULL,NULL,NULL,NULL,NULL,NULL,NULL,3803,19,202166,html-button-response,0,NULL,NULL,NULL
439,NULL,NULL,NULL,NULL,NULL,NULL,NULL,NULL,NULL,1412,20,203580,html-button-response,2,NULL,NULL,NULL
440,NULL,NULL,NULL,NULL,NULL,NULL,NULL,NULL,NULL,2514,21,206097,html-slider-response,NULL,38,NULL,NULL
441,NULL,NULL,NULL,NULL,NULL,NULL,NULL,NULL,NULL,NULL,22,206099,call-function,NULL,NULL,NULL,NULL
442,15,Array,1.2,1,7,0,1,NULL,NULL,NULL,23,225463,pong,NULL,NULL,NULL,NULL
443,NULL,NULL,NULL,NULL,NULL,NULL,NULL,NULL,NULL,1936,24,227402,html-button-response,1,NULL,NULL,NULL
444,NULL,NULL,NULL,NULL,NULL,NULL,NULL,NULL,NULL,515,25,227918,html-button-response,1,NULL,NULL,NULL
445,NULL,NULL,NULL,NULL,NULL,NULL,NULL,NULL,NULL,1726,26,229647,html-slider-response,NULL,60,NULL,NULL
446,NULL,NULL,NULL,NULL,NULL,NULL,NULL,NULL,NULL,NULL,27,229650,call-function,NULL,NULL,NULL,NULL
447,17,Array,1.9,1,5,0,2,NULL,NULL,NULL,28,255482,pong,NULL,NULL,NULL,NULL
448,NULL,NULL,NULL,NULL,NULL,NULL,NULL,NULL,NULL,2484,29,257968,html-button-response,1,NULL,NULL,NULL
449,NULL,NULL,NULL,NULL,NULL,NULL,NULL,NULL,NULL,1032,30,259002,html-button-response,1,NULL,NULL,NULL
450,NULL,NULL,NULL,NULL,NULL,NULL,NULL,NULL,NULL,1817,31,260823,html-slider-response,NULL,60,NULL,NULL
451,NULL,NULL,NULL,NULL,NULL,NULL,NULL,NULL,NULL,NULL,32,260825,call-function,NULL,NULL,NULL,NULL
452,15,Array,0.5,1,2,2,1,NULL,NULL,NULL,33,276850,pong,NULL,NULL,NULL,NULL
453,NULL,NULL,NULL,NULL,NULL,NULL,NULL,NULL,NULL,1814,34,278666,html-button-response,0,NULL,NULL,NULL
454,NULL,NULL,NULL,NULL,NULL,NULL,NULL,NULL,NULL,1250,35,279918,html-button-response,2,NULL,NULL,NULL
455,NULL,NULL,NULL,NULL,NULL,NULL,NULL,NULL,NULL,2310,36,282230,html-slider-response,NULL,28,NULL,NULL
456,NULL,NULL,NULL,NULL,NULL,NULL,NULL,NULL,NULL,NULL,37,282233,call-function,NULL,NULL,NULL,NULL
457,17,Array,1.2,1,0,2,2,NULL,NULL,NULL,38,300518,pong,NULL,NULL,NULL,NULL
458,NULL,NULL,NULL,NULL,NULL,NULL,NULL,NULL,NULL,1542,39,302062,html-button-response,1,NULL,NULL,NULL
459,NULL,NULL,NULL,NULL,NULL,NULL,NULL,NULL,NULL,530,40,302594,html-button-response,1,NULL,NULL,NULL
460,NULL,NULL,NULL,NULL,NULL,NULL,NULL,NULL,NULL,1098,41,303695,html-slider-response,NULL,50,NULL,NULL
461,NULL,NULL,NULL,NULL,NULL,NULL,NULL,NULL,NULL,NULL,42,303699,call-function,NULL,NULL,NULL,NULL
462,15,Array,0.5,1,2,1,1,NULL,NULL,NULL,43,322051,pong,NULL,NULL,NULL,NULL
463,NULL,NULL,NULL,NULL,NULL,NULL,NULL,NULL,NULL,3024,44,325077,html-button-response,0,NULL,NULL,NULL
464,NULL,NULL,NULL,NULL,NULL,NULL,NULL,NULL,NULL,875,45,325955,html-button-response,2,NULL,NULL,NULL
465,NULL,NULL,NULL,NULL,NULL,NULL,NULL,NULL,NULL,2038,46,327995,html-slider-response,NULL,30,NULL,NULL
466,NULL,NULL,NULL,NULL,NULL,NULL,NULL,NULL,NULL,NULL,47,327997,call-function,NULL,NULL,NULL,NULL
467,15,Array,1.9,1,1,3,3,NULL,NULL,NULL,48,347604,pong,NULL,NULL,NULL,NULL
468,NULL,NULL,NULL,NULL,NULL,NULL,NULL,NULL,NULL,2106,49,349712,html-button-response,1,NULL,NULL,NULL
469,NULL,NULL,NULL,NULL,NULL,NULL,NULL,NULL,NULL,483,50,350198,html-button-response,1,NULL,NULL,NULL
470,NULL,NULL,NULL,NULL,NULL,NULL,NULL,NULL,NULL,1276,51,351477,html-slider-response,NULL,50,NULL,NULL
471,NULL,NULL,NULL,NULL,NULL,NULL,NULL,NULL,NULL,NULL,52,351479,call-function,NULL,NULL,NULL,NULL
472,13,Array,1.9,1,1,0,2,NULL,NULL,NULL,53,369071,pong,NULL,NULL,NULL,NULL
473,NULL,NULL,NULL,NULL,NULL,NULL,NULL,NULL,NULL,2129,54,371203,html-button-response,2,NULL,NULL,NULL
474,NULL,NULL,NULL,NULL,NULL,NULL,NULL,NULL,NULL,1502,55,372707,html-button-response,0,NULL,NULL,NULL
475,NULL,NULL,NULL,NULL,NULL,NULL,NULL,NULL,NULL,2181,56,374891,html-slider-response,NULL,60,NULL,NULL
476,NULL,NULL,NULL,NULL,NULL,NULL,NULL,NULL,NULL,NULL,57,374893,call-function,NULL,NULL,NULL,NULL
477,15,Array,1.9,1,0,0,2,NULL,NULL,NULL,58,391490,pong,NULL,NULL,NULL,NULL
478,NULL,NULL,NULL,NULL,NULL,NULL,NULL,NULL,NULL,3243,59,394735,html-button-response,2,NULL,NULL,NULL
479,NULL,NULL,NULL,NULL,NULL,NULL,NULL,NULL,NULL,815,60,395552,html-button-response,0,NULL,NULL,NULL
480,NULL,NULL,NULL,NULL,NULL,NULL,NULL,NULL,NULL,5813,61,401367,html-slider-response,NULL,61,NULL,NULL
481,NULL,NULL,NULL,NULL,NULL,NULL,NULL,NULL,NULL,6735,0,6740,html-keyboard-response,NULL,NULL,NULL,NULL
482,13,Array,1.2,1,3,0,3,1,1,NULL,1,81955,pong,NULL,NULL,NULL,NULL
483,NULL,NULL,NULL,NULL,NULL,NULL,NULL,NULL,NULL,2536,2,84492,html-keyboard-response,NULL,NULL,NULL,NULL
484,15,Array,1.9,1,0,0,2,NULL,1,NULL,3,105489,pong,NULL,NULL,NULL,NULL
485,NULL,NULL,NULL,NULL,NULL,NULL,NULL,NULL,NULL,NULL,4,105492,call-function,NULL,NULL,NULL,NULL
486,NULL,NULL,NULL,NULL,NULL,NULL,NULL,NULL,NULL,1673,5,107167,html-keyboard-response,NULL,NULL,NULL,NULL
487,13,Array,0.5,1,0,0,1,NULL,1,NULL,6,124774,pong,NULL,NULL,NULL,NULL
488,NULL,NULL,NULL,NULL,NULL,NULL,NULL,NULL,NULL,1076,7,125857,html-keyboard-response,NULL,NULL,NULL,NULL
489,15,Array,1.9,1,2,1,1,NULL,NULL,NULL,8,144741,pong,NULL,NULL,NULL,NULL
490,NULL,NULL,NULL,NULL,NULL,NULL,NULL,NULL,NULL,2167,9,146912,html-button-response,0,NULL,NULL,NULL
491,NULL,NULL,NULL,NULL,NULL,NULL,NULL,NULL,NULL,1305,10,148219,html-button-response,2,NULL,NULL,NULL
492,NULL,NULL,NULL,NULL,NULL,NULL,NULL,NULL,NULL,3513,11,151736,html-slider-response,NULL,40,NULL,NULL
493,NULL,NULL,NULL,NULL,NULL,NULL,NULL,NULL,NULL,NULL,12,151739,call-function,NULL,NULL,NULL,NULL
494,15,Array,1.9,1,4,0,2,NULL,NULL,NULL,13,171960,pong,NULL,NULL,NULL,NULL
495,NULL,NULL,NULL,NULL,NULL,NULL,NULL,NULL,NULL,1783,14,173744,html-button-response,1,NULL,NULL,NULL
496,NULL,NULL,NULL,NULL,NULL,NULL,NULL,NULL,NULL,839,15,174586,html-button-response,1,NULL,NULL,NULL
497,NULL,NULL,NULL,NULL,NULL,NULL,NULL,NULL,NULL,894,16,175484,html-slider-response,NULL,50,NULL,NULL
498,NULL,NULL,NULL,NULL,NULL,NULL,NULL,NULL,NULL,NULL,17,175486,call-function,NULL,NULL,NULL,NULL
499,15,Array,1.2,1,5,1,1,NULL,NULL,NULL,18,198361,pong,NULL,NULL,NULL,NULL
500,NULL,NULL,NULL,NULL,NULL,NULL,NULL,NULL,NULL,3803,19,202166,html-button-response,0,NULL,NULL,NULL
501,NULL,NULL,NULL,NULL,NULL,NULL,NULL,NULL,NULL,1412,20,203580,html-button-response,2,NULL,NULL,NULL
502,NULL,NULL,NULL,NULL,NULL,NULL,NULL,NULL,NULL,2514,21,206097,html-slider-response,NULL,38,NULL,NULL
503,NULL,NULL,NULL,NULL,NULL,NULL,NULL,NULL,NULL,NULL,22,206099,call-function,NULL,NULL,NULL,NULL
504,15,Array,1.2,1,7,0,1,NULL,NULL,NULL,23,225463,pong,NULL,NULL,NULL,NULL
505,NULL,NULL,NULL,NULL,NULL,NULL,NULL,NULL,NULL,1936,24,227402,html-button-response,1,NULL,NULL,NULL
506,NULL,NULL,NULL,NULL,NULL,NULL,NULL,NULL,NULL,515,25,227918,html-button-response,1,NULL,NULL,NULL
507,NULL,NULL,NULL,NULL,NULL,NULL,NULL,NULL,NULL,1726,26,229647,html-slider-response,NULL,60,NULL,NULL
508,NULL,NULL,NULL,NULL,NULL,NULL,NULL,NULL,NULL,NULL,27,229650,call-function,NULL,NULL,NULL,NULL
509,17,Array,1.9,1,5,0,2,NULL,NULL,NULL,28,255482,pong,NULL,NULL,NULL,NULL
510,NULL,NULL,NULL,NULL,NULL,NULL,NULL,NULL,NULL,2484,29,257968,html-button-response,1,NULL,NULL,NULL
511,NULL,NULL,NULL,NULL,NULL,NULL,NULL,NULL,NULL,1032,30,259002,html-button-response,1,NULL,NULL,NULL
512,NULL,NULL,NULL,NULL,NULL,NULL,NULL,NULL,NULL,1817,31,260823,html-slider-response,NULL,60,NULL,NULL
513,NULL,NULL,NULL,NULL,NULL,NULL,NULL,NULL,NULL,NULL,32,260825,call-function,NULL,NULL,NULL,NULL
514,15,Array,0.5,1,2,2,1,NULL,NULL,NULL,33,276850,pong,NULL,NULL,NULL,NULL
515,NULL,NULL,NULL,NULL,NULL,NULL,NULL,NULL,NULL,1814,34,278666,html-button-response,0,NULL,NULL,NULL
516,NULL,NULL,NULL,NULL,NULL,NULL,NULL,NULL,NULL,1250,35,279918,html-button-response,2,NULL,NULL,NULL
517,NULL,NULL,NULL,NULL,NULL,NULL,NULL,NULL,NULL,2310,36,282230,html-slider-response,NULL,28,NULL,NULL
518,NULL,NULL,NULL,NULL,NULL,NULL,NULL,NULL,NULL,NULL,37,282233,call-function,NULL,NULL,NULL,NULL
519,17,Array,1.2,1,0,2,2,NULL,NULL,NULL,38,300518,pong,NULL,NULL,NULL,NULL
520,NULL,NULL,NULL,NULL,NULL,NULL,NULL,NULL,NULL,1542,39,302062,html-button-response,1,NULL,NULL,NULL
521,NULL,NULL,NULL,NULL,NULL,NULL,NULL,NULL,NULL,530,40,302594,html-button-response,1,NULL,NULL,NULL
522,NULL,NULL,NULL,NULL,NULL,NULL,NULL,NULL,NULL,1098,41,303695,html-slider-response,NULL,50,NULL,NULL
523,NULL,NULL,NULL,NULL,NULL,NULL,NULL,NULL,NULL,NULL,42,303699,call-function,NULL,NULL,NULL,NULL
524,15,Array,0.5,1,2,1,1,NULL,NULL,NULL,43,322051,pong,NULL,NULL,NULL,NULL
525,NULL,NULL,NULL,NULL,NULL,NULL,NULL,NULL,NULL,3024,44,325077,html-button-response,0,NULL,NULL,NULL
526,NULL,NULL,NULL,NULL,NULL,NULL,NULL,NULL,NULL,875,45,325955,html-button-response,2,NULL,NULL,NULL
527,NULL,NULL,NULL,NULL,NULL,NULL,NULL,NULL,NULL,2038,46,327995,html-slider-response,NULL,30,NULL,NULL
528,NULL,NULL,NULL,NULL,NULL,NULL,NULL,NULL,NULL,NULL,47,327997,call-function,NULL,NULL,NULL,NULL
529,15,Array,1.9,1,1,3,3,NULL,NULL,NULL,48,347604,pong,NULL,NULL,NULL,NULL
530,NULL,NULL,NULL,NULL,NULL,NULL,NULL,NULL,NULL,2106,49,349712,html-button-response,1,NULL,NULL,NULL
531,NULL,NULL,NULL,NULL,NULL,NULL,NULL,NULL,NULL,483,50,350198,html-button-response,1,NULL,NULL,NULL
532,NULL,NULL,NULL,NULL,NULL,NULL,NULL,NULL,NULL,1276,51,351477,html-slider-response,NULL,50,NULL,NULL
533,NULL,NULL,NULL,NULL,NULL,NULL,NULL,NULL,NULL,NULL,52,351479,call-function,NULL,NULL,NULL,NULL
534,13,Array,1.9,1,1,0,2,NULL,NULL,NULL,53,369071,pong,NULL,NULL,NULL,NULL
535,NULL,NULL,NULL,NULL,NULL,NULL,NULL,NULL,NULL,2129,54,371203,html-button-response,2,NULL,NULL,NULL
536,NULL,NULL,NULL,NULL,NULL,NULL,NULL,NULL,NULL,1502,55,372707,html-button-response,0,NULL,NULL,NULL
537,NULL,NULL,NULL,NULL,NULL,NULL,NULL,NULL,NULL,2181,56,374891,html-slider-response,NULL,60,NULL,NULL
538,NULL,NULL,NULL,NULL,NULL,NULL,NULL,NULL,NULL,NULL,57,374893,call-function,NULL,NULL,NULL,NULL
539,15,Array,1.9,1,0,0,2,NULL,NULL,NULL,58,391490,pong,NULL,NULL,NULL,NULL
540,NULL,NULL,NULL,NULL,NULL,NULL,NULL,NULL,NULL,3243,59,394735,html-button-response,2,NULL,NULL,NULL
541,NULL,NULL,NULL,NULL,NULL,NULL,NULL,NULL,NULL,815,60,395552,html-button-response,0,NULL,NULL,NULL
542,NULL,NULL,NULL,NULL,NULL,NULL,NULL,NULL,NULL,5813,61,401367,html-slider-response,NULL,61,NULL,NULL
543,NULL,NULL,NULL,NULL,NULL,NULL,NULL,NULL,NULL,NULL,62,401369,call-function,NULL,NULL,NULL,NULL
544,13,Array,0.5,1,0,2,1,NULL,NULL,NULL,63,417275,pong,NULL,NULL,NULL,NULL
545,NULL,NULL,NULL,NULL,NULL,NULL,NULL,NULL,NULL,1301,64,418578,html-button-response,0,NULL,NULL,NULL
546,NULL,NULL,NULL,NULL,NULL,NULL,NULL,NULL,NULL,1196,65,419776,html-button-response,1,NULL,NULL,NULL
547,NULL,NULL,NULL,NULL,NULL,NULL,NULL,NULL,NULL,2461,66,422239,html-slider-response,NULL,61,NULL,NULL
548,NULL,NULL,NULL,NULL,NULL,NULL,NULL,NULL,NULL,6735,0,6740,html-keyboard-response,NULL,NULL,NULL,NULL
549,13,Array,1.2,1,3,0,3,1,1,NULL,1,81955,pong,NULL,NULL,NULL,NULL
550,NULL,NULL,NULL,NULL,NULL,NULL,NULL,NULL,NULL,2536,2,84492,html-keyboard-response,NULL,NULL,NULL,NULL
551,15,Array,1.9,1,0,0,2,NULL,1,NULL,3,105489,pong,NULL,NULL,NULL,NULL
552,NULL,NULL,NULL,NULL,NULL,NULL,NULL,NULL,NULL,NULL,4,105492,call-function,NULL,NULL,NULL,NULL
553,NULL,NULL,NULL,NULL,NULL,NULL,NULL,NULL,NULL,1673,5,107167,html-keyboard-response,NULL,NULL,NULL,NULL
554,13,Array,0.5,1,0,0,1,NULL,1,NULL,6,124774,pong,NULL,NULL,NULL,NULL
555,NULL,NULL,NULL,NULL,NULL,NULL,NULL,NULL,NULL,1076,7,125857,html-keyboard-response,NULL,NULL,NULL,NULL
556,15,Array,1.9,1,2,1,1,NULL,NULL,NULL,8,144741,pong,NULL,NULL,NULL,NULL
557,NULL,NULL,NULL,NULL,NULL,NULL,NULL,NULL,NULL,2167,9,146912,html-button-response,0,NULL,NULL,NULL
558,NULL,NULL,NULL,NULL,NULL,NULL,NULL,NULL,NULL,1305,10,148219,html-button-response,2,NULL,NULL,NULL
559,NULL,NULL,NULL,NULL,NULL,NULL,NULL,NULL,NULL,3513,11,151736,html-slider-response,NULL,40,NULL,NULL
560,NULL,NULL,NULL,NULL,NULL,NULL,NULL,NULL,NULL,NULL,12,151739,call-function,NULL,NULL,NULL,NULL
561,15,Array,1.9,1,4,0,2,NULL,NULL,NULL,13,171960,pong,NULL,NULL,NULL,NULL
562,NULL,NULL,NULL,NULL,NULL,NULL,NULL,NULL,NULL,1783,14,173744,html-button-response,1,NULL,NULL,NULL
563,NULL,NULL,NULL,NULL,NULL,NULL,NULL,NULL,NULL,839,15,174586,html-button-response,1,NULL,NULL,NULL
564,NULL,NULL,NULL,NULL,NULL,NULL,NULL,NULL,NULL,894,16,175484,html-slider-response,NULL,50,NULL,NULL
565,NULL,NULL,NULL,NULL,NULL,NULL,NULL,NULL,NULL,NULL,17,175486,call-function,NULL,NULL,NULL,NULL
566,15,Array,1.2,1,5,1,1,NULL,NULL,NULL,18,198361,pong,NULL,NULL,NULL,NULL
567,NULL,NULL,NULL,NULL,NULL,NULL,NULL,NULL,NULL,3803,19,202166,html-button-response,0,NULL,NULL,NULL
568,NULL,NULL,NULL,NULL,NULL,NULL,NULL,NULL,NULL,1412,20,203580,html-button-response,2,NULL,NULL,NULL
569,NULL,NULL,NULL,NULL,NULL,NULL,NULL,NULL,NULL,2514,21,206097,html-slider-response,NULL,38,NULL,NULL
570,NULL,NULL,NULL,NULL,NULL,NULL,NULL,NULL,NULL,NULL,22,206099,call-function,NULL,NULL,NULL,NULL
571,15,Array,1.2,1,7,0,1,NULL,NULL,NULL,23,225463,pong,NULL,NULL,NULL,NULL
572,NULL,NULL,NULL,NULL,NULL,NULL,NULL,NULL,NULL,1936,24,227402,html-button-response,1,NULL,NULL,NULL
573,NULL,NULL,NULL,NULL,NULL,NULL,NULL,NULL,NULL,515,25,227918,html-button-response,1,NULL,NULL,NULL
574,NULL,NULL,NULL,NULL,NULL,NULL,NULL,NULL,NULL,1726,26,229647,html-slider-response,NULL,60,NULL,NULL
575,NULL,NULL,NULL,NULL,NULL,NULL,NULL,NULL,NULL,NULL,27,229650,call-function,NULL,NULL,NULL,NULL
576,17,Array,1.9,1,5,0,2,NULL,NULL,NULL,28,255482,pong,NULL,NULL,NULL,NULL
577,NULL,NULL,NULL,NULL,NULL,NULL,NULL,NULL,NULL,2484,29,257968,html-button-response,1,NULL,NULL,NULL
578,NULL,NULL,NULL,NULL,NULL,NULL,NULL,NULL,NULL,1032,30,259002,html-button-response,1,NULL,NULL,NULL
579,NULL,NULL,NULL,NULL,NULL,NULL,NULL,NULL,NULL,1817,31,260823,html-slider-response,NULL,60,NULL,NULL
580,NULL,NULL,NULL,NULL,NULL,NULL,NULL,NULL,NULL,NULL,32,260825,call-function,NULL,NULL,NULL,NULL
581,15,Array,0.5,1,2,2,1,NULL,NULL,NULL,33,276850,pong,NULL,NULL,NULL,NULL
582,NULL,NULL,NULL,NULL,NULL,NULL,NULL,NULL,NULL,1814,34,278666,html-button-response,0,NULL,NULL,NULL
583,NULL,NULL,NULL,NULL,NULL,NULL,NULL,NULL,NULL,1250,35,279918,html-button-response,2,NULL,NULL,NULL
584,NULL,NULL,NULL,NULL,NULL,NULL,NULL,NULL,NULL,2310,36,282230,html-slider-response,NULL,28,NULL,NULL
585,NULL,NULL,NULL,NULL,NULL,NULL,NULL,NULL,NULL,NULL,37,282233,call-function,NULL,NULL,NULL,NULL
586,17,Array,1.2,1,0,2,2,NULL,NULL,NULL,38,300518,pong,NULL,NULL,NULL,NULL
587,NULL,NULL,NULL,NULL,NULL,NULL,NULL,NULL,NULL,1542,39,302062,html-button-response,1,NULL,NULL,NULL
588,NULL,NULL,NULL,NULL,NULL,NULL,NULL,NULL,NULL,530,40,302594,html-button-response,1,NULL,NULL,NULL
589,NULL,NULL,NULL,NULL,NULL,NULL,NULL,NULL,NULL,1098,41,303695,html-slider-response,NULL,50,NULL,NULL
590,NULL,NULL,NULL,NULL,NULL,NULL,NULL,NULL,NULL,NULL,42,303699,call-function,NULL,NULL,NULL,NULL
591,15,Array,0.5,1,2,1,1,NULL,NULL,NULL,43,322051,pong,NULL,NULL,NULL,NULL
592,NULL,NULL,NULL,NULL,NULL,NULL,NULL,NULL,NULL,3024,44,325077,html-button-response,0,NULL,NULL,NULL
593,NULL,NULL,NULL,NULL,NULL,NULL,NULL,NULL,NULL,875,45,325955,html-button-response,2,NULL,NULL,NULL
594,NULL,NULL,NULL,NULL,NULL,NULL,NULL,NULL,NULL,2038,46,327995,html-slider-response,NULL,30,NULL,NULL
595,NULL,NULL,NULL,NULL,NULL,NULL,NULL,NULL,NULL,NULL,47,327997,call-function,NULL,NULL,NULL,NULL
596,15,Array,1.9,1,1,3,3,NULL,NULL,NULL,48,347604,pong,NULL,NULL,NULL,NULL
597,NULL,NULL,NULL,NULL,NULL,NULL,NULL,NULL,NULL,2106,49,349712,html-button-response,1,NULL,NULL,NULL
598,NULL,NULL,NULL,NULL,NULL,NULL,NULL,NULL,NULL,483,50,350198,html-button-response,1,NULL,NULL,NULL
599,NULL,NULL,NULL,NULL,NULL,NULL,NULL,NULL,NULL,1276,51,351477,html-slider-response,NULL,50,NULL,NULL
600,NULL,NULL,NULL,NULL,NULL,NULL,NULL,NULL,NULL,NULL,52,351479,call-function,NULL,NULL,NULL,NULL
601,13,Array,1.9,1,1,0,2,NULL,NULL,NULL,53,369071,pong,NULL,NULL,NULL,NULL
602,NULL,NULL,NULL,NULL,NULL,NULL,NULL,NULL,NULL,2129,54,371203,html-button-response,2,NULL,NULL,NULL
603,NULL,NULL,NULL,NULL,NULL,NULL,NULL,NULL,NULL,1502,55,372707,html-button-response,0,NULL,NULL,NULL
604,NULL,NULL,NULL,NULL,NULL,NULL,NULL,NULL,NULL,2181,56,374891,html-slider-response,NULL,60,NULL,NULL
605,NULL,NULL,NULL,NULL,NULL,NULL,NULL,NULL,NULL,NULL,57,374893,call-function,NULL,NULL,NULL,NULL
606,15,Array,1.9,1,0,0,2,NULL,NULL,NULL,58,391490,pong,NULL,NULL,NULL,NULL
607,NULL,NULL,NULL,NULL,NULL,NULL,NULL,NULL,NULL,3243,59,394735,html-button-response,2,NULL,NULL,NULL
608,NULL,NULL,NULL,NULL,NULL,NULL,NULL,NULL,NULL,815,60,395552,html-button-response,0,NULL,NULL,NULL
609,NULL,NULL,NULL,NULL,NULL,NULL,NULL,NULL,NULL,5813,61,401367,html-slider-response,NULL,61,NULL,NULL
610,NULL,NULL,NULL,NULL,NULL,NULL,NULL,NULL,NULL,NULL,62,401369,call-function,NULL,NULL,NULL,NULL
611,13,Array,0.5,1,0,2,1,NULL,NULL,NULL,63,417275,pong,NULL,NULL,NULL,NULL
612,NULL,NULL,NULL,NULL,NULL,NULL,NULL,NULL,NULL,1301,64,418578,html-button-response,0,NULL,NULL,NULL
613,NULL,NULL,NULL,NULL,NULL,NULL,NULL,NULL,NULL,1196,65,419776,html-button-response,1,NULL,NULL,NULL
614,NULL,NULL,NULL,NULL,NULL,NULL,NULL,NULL,NULL,2461,66,422239,html-slider-response,NULL,61,NULL,NULL
615,NULL,NULL,NULL,NULL,NULL,NULL,NULL,NULL,NULL,NULL,67,422241,call-function,NULL,NULL,NULL,NULL
616,15,Array,0.5,1,2,5,3,NULL,NULL,NULL,68,439811,pong,NULL,NULL,NULL,NULL
617,NULL,NULL,NULL,NULL,NULL,NULL,NULL,NULL,NULL,2056,69,441870,html-button-response,1,NULL,NULL,NULL
618,NULL,NULL,NULL,NULL,NULL,NULL,NULL,NULL,NULL,921,70,442793,html-button-response,2,NULL,NULL,NULL
619,NULL,NULL,NULL,NULL,NULL,NULL,NULL,NULL,NULL,1602,71,444396,html-slider-response,NULL,15,NULL,NULL
620,NULL,NULL,NULL,NULL,NULL,NULL,NULL,NULL,NULL,6735,0,6740,html-keyboard-response,NULL,NULL,NULL,NULL
621,13,Array,1.2,1,3,0,3,1,1,NULL,1,81955,pong,NULL,NULL,NULL,NULL
622,NULL,NULL,NULL,NULL,NULL,NULL,NULL,NULL,NULL,2536,2,84492,html-keyboard-response,NULL,NULL,NULL,NULL
623,15,Array,1.9,1,0,0,2,NULL,1,NULL,3,105489,pong,NULL,NULL,NULL,NULL
624,NULL,NULL,NULL,NULL,NULL,NULL,NULL,NULL,NULL,NULL,4,105492,call-function,NULL,NULL,NULL,NULL
625,NULL,NULL,NULL,NULL,NULL,NULL,NULL,NULL,NULL,1673,5,107167,html-keyboard-response,NULL,NULL,NULL,NULL
626,13,Array,0.5,1,0,0,1,NULL,1,NULL,6,124774,pong,NULL,NULL,NULL,NULL
627,NULL,NULL,NULL,NULL,NULL,NULL,NULL,NULL,NULL,1076,7,125857,html-keyboard-response,NULL,NULL,NULL,NULL
628,15,Array,1.9,1,2,1,1,NULL,NULL,NULL,8,144741,pong,NULL,NULL,NULL,NULL
629,NULL,NULL,NULL,NULL,NULL,NULL,NULL,NULL,NULL,2167,9,146912,html-button-response,0,NULL,NULL,NULL
630,NULL,NULL,NULL,NULL,NULL,NULL,NULL,NULL,NULL,1305,10,148219,html-button-response,2,NULL,NULL,NULL
631,NULL,NULL,NULL,NULL,NULL,NULL,NULL,NULL,NULL,3513,11,151736,html-slider-response,NULL,40,NULL,NULL
632,NULL,NULL,NULL,NULL,NULL,NULL,NULL,NULL,NULL,NULL,12,151739,call-function,NULL,NULL,NULL,NULL
633,15,Array,1.9,1,4,0,2,NULL,NULL,NULL,13,171960,pong,NULL,NULL,NULL,NULL
634,NULL,NULL,NULL,NULL,NULL,NULL,NULL,NULL,NULL,1783,14,173744,html-button-response,1,NULL,NULL,NULL
635,NULL,NULL,NULL,NULL,NULL,NULL,NULL,NULL,NULL,839,15,174586,html-button-response,1,NULL,NULL,NULL
636,NULL,NULL,NULL,NULL,NULL,NULL,NULL,NULL,NULL,894,16,175484,html-slider-response,NULL,50,NULL,NULL
637,NULL,NULL,NULL,NULL,NULL,NULL,NULL,NULL,NULL,NULL,17,175486,call-function,NULL,NULL,NULL,NULL
638,15,Array,1.2,1,5,1,1,NULL,NULL,NULL,18,198361,pong,NULL,NULL,NULL,NULL
639,NULL,NULL,NULL,NULL,NULL,NULL,NULL,NULL,NULL,3803,19,202166,html-button-response,0,NULL,NULL,NULL
640,NULL,NULL,NULL,NULL,NULL,NULL,NULL,NULL,NULL,1412,20,203580,html-button-response,2,NULL,NULL,NULL
641,NULL,NULL,NULL,NULL,NULL,NULL,NULL,NULL,NULL,2514,21,206097,html-slider-response,NULL,38,NULL,NULL
642,NULL,NULL,NULL,NULL,NULL,NULL,NULL,NULL,NULL,NULL,22,206099,call-function,NULL,NULL,NULL,NULL
643,15,Array,1.2,1,7,0,1,NULL,NULL,NULL,23,225463,pong,NULL,NULL,NULL,NULL
644,NULL,NULL,NULL,NULL,NULL,NULL,NULL,NULL,NULL,1936,24,227402,html-button-response,1,NULL,NULL,NULL
645,NULL,NULL,NULL,NULL,NULL,NULL,NULL,NULL,NULL,515,25,227918,html-button-response,1,NULL,NULL,NULL
646,NULL,NULL,NULL,NULL,NULL,NULL,NULL,NULL,NULL,1726,26,229647,html-slider-response,NULL,60,NULL,NULL
647,NULL,NULL,NULL,NULL,NULL,NULL,NULL,NULL,NULL,NULL,27,229650,call-function,NULL,NULL,NULL,NULL
648,17,Array,1.9,1,5,0,2,NULL,NULL,NULL,28,255482,pong,NULL,NULL,NULL,NULL
649,NULL,NULL,NULL,NULL,NULL,NULL,NULL,NULL,NULL,2484,29,257968,html-button-response,1,NULL,NULL,NULL
650,NULL,NULL,NULL,NULL,NULL,NULL,NULL,NULL,NULL,1032,30,259002,html-button-response,1,NULL,NULL,NULL
651,NULL,NULL,NULL,NULL,NULL,NULL,NULL,NULL,NULL,1817,31,260823,html-slider-response,NULL,60,NULL,NULL
652,NULL,NULL,NULL,NULL,NULL,NULL,NULL,NULL,NULL,NULL,32,260825,call-function,NULL,NULL,NULL,NULL
653,15,Array,0.5,1,2,2,1,NULL,NULL,NULL,33,276850,pong,NULL,NULL,NULL,NULL
654,NULL,NULL,NULL,NULL,NULL,NULL,NULL,NULL,NULL,1814,34,278666,html-button-response,0,NULL,NULL,NULL
655,NULL,NULL,NULL,NULL,NULL,NULL,NULL,NULL,NULL,1250,35,279918,html-button-response,2,NULL,NULL,NULL
656,NULL,NULL,NULL,NULL,NULL,NULL,NULL,NULL,NULL,2310,36,282230,html-slider-response,NULL,28,NULL,NULL
657,NULL,NULL,NULL,NULL,NULL,NULL,NULL,NULL,NULL,NULL,37,282233,call-function,NULL,NULL,NULL,NULL
658,17,Array,1.2,1,0,2,2,NULL,NULL,NULL,38,300518,pong,NULL,NULL,NULL,NULL
659,NULL,NULL,NULL,NULL,NULL,NULL,NULL,NULL,NULL,1542,39,302062,html-button-response,1,NULL,NULL,NULL
660,NULL,NULL,NULL,NULL,NULL,NULL,NULL,NULL,NULL,530,40,302594,html-button-response,1,NULL,NULL,NULL
661,NULL,NULL,NULL,NULL,NULL,NULL,NULL,NULL,NULL,1098,41,303695,html-slider-response,NULL,50,NULL,NULL
662,NULL,NULL,NULL,NULL,NULL,NULL,NULL,NULL,NULL,NULL,42,303699,call-function,NULL,NULL,NULL,NULL
663,15,Array,0.5,1,2,1,1,NULL,NULL,NULL,43,322051,pong,NULL,NULL,NULL,NULL
664,NULL,NULL,NULL,NULL,NULL,NULL,NULL,NULL,NULL,3024,44,325077,html-button-response,0,NULL,NULL,NULL
665,NULL,NULL,NULL,NULL,NULL,NULL,NULL,NULL,NULL,875,45,325955,html-button-response,2,NULL,NULL,NULL
666,NULL,NULL,NULL,NULL,NULL,NULL,NULL,NULL,NULL,2038,46,327995,html-slider-response,NULL,30,NULL,NULL
667,NULL,NULL,NULL,NULL,NULL,NULL,NULL,NULL,NULL,NULL,47,327997,call-function,NULL,NULL,NULL,NULL
668,15,Array,1.9,1,1,3,3,NULL,NULL,NULL,48,347604,pong,NULL,NULL,NULL,NULL
669,NULL,NULL,NULL,NULL,NULL,NULL,NULL,NULL,NULL,2106,49,349712,html-button-response,1,NULL,NULL,NULL
670,NULL,NULL,NULL,NULL,NULL,NULL,NULL,NULL,NULL,483,50,350198,html-button-response,1,NULL,NULL,NULL
671,NULL,NULL,NULL,NULL,NULL,NULL,NULL,NULL,NULL,1276,51,351477,html-slider-response,NULL,50,NULL,NULL
672,NULL,NULL,NULL,NULL,NULL,NULL,NULL,NULL,NULL,NULL,52,351479,call-function,NULL,NULL,NULL,NULL
673,13,Array,1.9,1,1,0,2,NULL,NULL,NULL,53,369071,pong,NULL,NULL,NULL,NULL
674,NULL,NULL,NULL,NULL,NULL,NULL,NULL,NULL,NULL,2129,54,371203,html-button-response,2,NULL,NULL,NULL
675,NULL,NULL,NULL,NULL,NULL,NULL,NULL,NULL,NULL,1502,55,372707,html-button-response,0,NULL,NULL,NULL
676,NULL,NULL,NULL,NULL,NULL,NULL,NULL,NULL,NULL,2181,56,374891,html-slider-response,NULL,60,NULL,NULL
677,NULL,NULL,NULL,NULL,NULL,NULL,NULL,NULL,NULL,NULL,57,374893,call-function,NULL,NULL,NULL,NULL
678,15,Array,1.9,1,0,0,2,NULL,NULL,NULL,58,391490,pong,NULL,NULL,NULL,NULL
679,NULL,NULL,NULL,NULL,NULL,NULL,NULL,NULL,NULL,3243,59,394735,html-button-response,2,NULL,NULL,NULL
680,NULL,NULL,NULL,NULL,NULL,NULL,NULL,NULL,NULL,815,60,395552,html-button-response,0,NULL,NULL,NULL
681,NULL,NULL,NULL,NULL,NULL,NULL,NULL,NULL,NULL,5813,61,401367,html-slider-response,NULL,61,NULL,NULL
682,NULL,NULL,NULL,NULL,NULL,NULL,NULL,NULL,NULL,NULL,62,401369,call-function,NULL,NULL,NULL,NULL
683,13,Array,0.5,1,0,2,1,NULL,NULL,NULL,63,417275,pong,NULL,NULL,NULL,NULL
684,NULL,NULL,NULL,NULL,NULL,NULL,NULL,NULL,NULL,1301,64,418578,html-button-response,0,NULL,NULL,NULL
685,NULL,NULL,NULL,NULL,NULL,NULL,NULL,NULL,NULL,1196,65,419776,html-button-response,1,NULL,NULL,NULL
686,NULL,NULL,NULL,NULL,NULL,NULL,NULL,NULL,NULL,2461,66,422239,html-slider-response,NULL,61,NULL,NULL
687,NULL,NULL,NULL,NULL,NULL,NULL,NULL,NULL,NULL,NULL,67,422241,call-function,NULL,NULL,NULL,NULL
688,15,Array,0.5,1,2,5,3,NULL,NULL,NULL,68,439811,pong,NULL,NULL,NULL,NULL
689,NULL,NULL,NULL,NULL,NULL,NULL,NULL,NULL,NULL,2056,69,441870,html-button-response,1,NULL,NULL,NULL
690,NULL,NULL,NULL,NULL,NULL,NULL,NULL,NULL,NULL,921,70,442793,html-button-response,2,NULL,NULL,NULL
691,NULL,NULL,NULL,NULL,NULL,NULL,NULL,NULL,NULL,1602,71,444396,html-slider-response,NULL,15,NULL,NULL
692,NULL,NULL,NULL,NULL,NULL,NULL,NULL,NULL,NULL,NULL,72,444399,call-function,NULL,NULL,NULL,NULL
693,13,Array,1.9,1,4,1,2,NULL,NULL,NULL,73,464712,pong,NULL,NULL,NULL,NULL
694,NULL,NULL,NULL,NULL,NULL,NULL,NULL,NULL,NULL,7133,74,471849,html-button-response,2,NULL,NULL,NULL
695,NULL,NULL,NULL,NULL,NULL,NULL,NULL,NULL,NULL,3940,75,475790,html-button-response,0,NULL,NULL,NULL
696,NULL,NULL,NULL,NULL,NULL,NULL,NULL,NULL,NULL,2319,76,478112,html-slider-response,NULL,65,NULL,NULL
697,NULL,NULL,NULL,NULL,NULL,NULL,NULL,NULL,NULL,6735,0,6740,html-keyboard-response,NULL,NULL,NULL,NULL
698,13,Array,1.2,1,3,0,3,1,1,NULL,1,81955,pong,NULL,NULL,NULL,NULL
699,NULL,NULL,NULL,NULL,NULL,NULL,NULL,NULL,NULL,2536,2,84492,html-keyboard-response,NULL,NULL,NULL,NULL
700,15,Array,1.9,1,0,0,2,NULL,1,NULL,3,105489,pong,NULL,NULL,NULL,NULL
701,NULL,NULL,NULL,NULL,NULL,NULL,NULL,NULL,NULL,NULL,4,105492,call-function,NULL,NULL,NULL,NULL
702,NULL,NULL,NULL,NULL,NULL,NULL,NULL,NULL,NULL,1673,5,107167,html-keyboard-response,NULL,NULL,NULL,NULL
703,13,Array,0.5,1,0,0,1,NULL,1,NULL,6,124774,pong,NULL,NULL,NULL,NULL
704,NULL,NULL,NULL,NULL,NULL,NULL,NULL,NULL,NULL,1076,7,125857,html-keyboard-response,NULL,NULL,NULL,NULL
705,15,Array,1.9,1,2,1,1,NULL,NULL,NULL,8,144741,pong,NULL,NULL,NULL,NULL
706,NULL,NULL,NULL,NULL,NULL,NULL,NULL,NULL,NULL,2167,9,146912,html-button-response,0,NULL,NULL,NULL
707,NULL,NULL,NULL,NULL,NULL,NULL,NULL,NULL,NULL,1305,10,148219,html-button-response,2,NULL,NULL,NULL
708,NULL,NULL,NULL,NULL,NULL,NULL,NULL,NULL,NULL,3513,11,151736,html-slider-response,NULL,40,NULL,NULL
709,NULL,NULL,NULL,NULL,NULL,NULL,NULL,NULL,NULL,NULL,12,151739,call-function,NULL,NULL,NULL,NULL
710,15,Array,1.9,1,4,0,2,NULL,NULL,NULL,13,171960,pong,NULL,NULL,NULL,NULL
711,NULL,NULL,NULL,NULL,NULL,NULL,NULL,NULL,NULL,1783,14,173744,html-button-response,1,NULL,NULL,NULL
712,NULL,NULL,NULL,NULL,NULL,NULL,NULL,NULL,NULL,839,15,174586,html-button-response,1,NULL,NULL,NULL
713,NULL,NULL,NULL,NULL,NULL,NULL,NULL,NULL,NULL,894,16,175484,html-slider-response,NULL,50,NULL,NULL
714,NULL,NULL,NULL,NULL,NULL,NULL,NULL,NULL,NULL,NULL,17,175486,call-function,NULL,NULL,NULL,NULL
715,15,Array,1.2,1,5,1,1,NULL,NULL,NULL,18,198361,pong,NULL,NULL,NULL,NULL
716,NULL,NULL,NULL,NULL,NULL,NULL,NULL,NULL,NULL,3803,19,202166,html-button-response,0,NULL,NULL,NULL
717,NULL,NULL,NULL,NULL,NULL,NULL,NULL,NULL,NULL,1412,20,203580,html-button-response,2,NULL,NULL,NULL
718,NULL,NULL,NULL,NULL,NULL,NULL,NULL,NULL,NULL,2514,21,206097,html-slider-response,NULL,38,NULL,NULL
719,NULL,NULL,NULL,NULL,NULL,NULL,NULL,NULL,NULL,NULL,22,206099,call-function,NULL,NULL,NULL,NULL
720,15,Array,1.2,1,7,0,1,NULL,NULL,NULL,23,225463,pong,NULL,NULL,NULL,NULL
721,NULL,NULL,NULL,NULL,NULL,NULL,NULL,NULL,NULL,1936,24,227402,html-button-response,1,NULL,NULL,NULL
722,NULL,NULL,NULL,NULL,NULL,NULL,NULL,NULL,NULL,515,25,227918,html-button-response,1,NULL,NULL,NULL
723,NULL,NULL,NULL,NULL,NULL,NULL,NULL,NULL,NULL,1726,26,229647,html-slider-response,NULL,60,NULL,NULL
724,NULL,NULL,NULL,NULL,NULL,NULL,NULL,NULL,NULL,NULL,27,229650,call-function,NULL,NULL,NULL,NULL
725,17,Array,1.9,1,5,0,2,NULL,NULL,NULL,28,255482,pong,NULL,NULL,NULL,NULL
726,NULL,NULL,NULL,NULL,NULL,NULL,NULL,NULL,NULL,2484,29,257968,html-button-response,1,NULL,NULL,NULL
727,NULL,NULL,NULL,NULL,NULL,NULL,NULL,NULL,NULL,1032,30,259002,html-button-response,1,NULL,NULL,NULL
728,NULL,NULL,NULL,NULL,NULL,NULL,NULL,NULL,NULL,1817,31,260823,html-slider-response,NULL,60,NULL,NULL
729,NULL,NULL,NULL,NULL,NULL,NULL,NULL,NULL,NULL,NULL,32,260825,call-function,NULL,NULL,NULL,NULL
730,15,Array,0.5,1,2,2,1,NULL,NULL,NULL,33,276850,pong,NULL,NULL,NULL,NULL
731,NULL,NULL,NULL,NULL,NULL,NULL,NULL,NULL,NULL,1814,34,278666,html-button-response,0,NULL,NULL,NULL
732,NULL,NULL,NULL,NULL,NULL,NULL,NULL,NULL,NULL,1250,35,279918,html-button-response,2,NULL,NULL,NULL
733,NULL,NULL,NULL,NULL,NULL,NULL,NULL,NULL,NULL,2310,36,282230,html-slider-response,NULL,28,NULL,NULL
734,NULL,NULL,NULL,NULL,NULL,NULL,NULL,NULL,NULL,NULL,37,282233,call-function,NULL,NULL,NULL,NULL
735,17,Array,1.2,1,0,2,2,NULL,NULL,NULL,38,300518,pong,NULL,NULL,NULL,NULL
736,NULL,NULL,NULL,NULL,NULL,NULL,NULL,NULL,NULL,1542,39,302062,html-button-response,1,NULL,NULL,NULL
737,NULL,NULL,NULL,NULL,NULL,NULL,NULL,NULL,NULL,530,40,302594,html-button-response,1,NULL,NULL,NULL
738,NULL,NULL,NULL,NULL,NULL,NULL,NULL,NULL,NULL,1098,41,303695,html-slider-response,NULL,50,NULL,NULL
739,NULL,NULL,NULL,NULL,NULL,NULL,NULL,NULL,NULL,NULL,42,303699,call-function,NULL,NULL,NULL,NULL
740,15,Array,0.5,1,2,1,1,NULL,NULL,NULL,43,322051,pong,NULL,NULL,NULL,NULL
741,NULL,NULL,NULL,NULL,NULL,NULL,NULL,NULL,NULL,3024,44,325077,html-button-response,0,NULL,NULL,NULL
742,NULL,NULL,NULL,NULL,NULL,NULL,NULL,NULL,NULL,875,45,325955,html-button-response,2,NULL,NULL,NULL
743,NULL,NULL,NULL,NULL,NULL,NULL,NULL,NULL,NULL,2038,46,327995,html-slider-response,NULL,30,NULL,NULL
744,NULL,NULL,NULL,NULL,NULL,NULL,NULL,NULL,NULL,NULL,47,327997,call-function,NULL,NULL,NULL,NULL
745,15,Array,1.9,1,1,3,3,NULL,NULL,NULL,48,347604,pong,NULL,NULL,NULL,NULL
746,NULL,NULL,NULL,NULL,NULL,NULL,NULL,NULL,NULL,2106,49,349712,html-button-response,1,NULL,NULL,NULL
747,NULL,NULL,NULL,NULL,NULL,NULL,NULL,NULL,NULL,483,50,350198,html-button-response,1,NULL,NULL,NULL
748,NULL,NULL,NULL,NULL,NULL,NULL,NULL,NULL,NULL,1276,51,351477,html-slider-response,NULL,50,NULL,NULL
749,NULL,NULL,NULL,NULL,NULL,NULL,NULL,NULL,NULL,NULL,52,351479,call-function,NULL,NULL,NULL,NULL
750,13,Array,1.9,1,1,0,2,NULL,NULL,NULL,53,369071,pong,NULL,NULL,NULL,NULL
751,NULL,NULL,NULL,NULL,NULL,NULL,NULL,NULL,NULL,2129,54,371203,html-button-response,2,NULL,NULL,NULL
752,NULL,NULL,NULL,NULL,NULL,NULL,NULL,NULL,NULL,1502,55,372707,html-button-response,0,NULL,NULL,NULL
753,NULL,NULL,NULL,NULL,NULL,NULL,NULL,NULL,NULL,2181,56,374891,html-slider-response,NULL,60,NULL,NULL
754,NULL,NULL,NULL,NULL,NULL,NULL,NULL,NULL,NULL,NULL,57,374893,call-function,NULL,NULL,NULL,NULL
755,15,Array,1.9,1,0,0,2,NULL,NULL,NULL,58,391490,pong,NULL,NULL,NULL,NULL
756,NULL,NULL,NULL,NULL,NULL,NULL,NULL,NULL,NULL,3243,59,394735,html-button-response,2,NULL,NULL,NULL
757,NULL,NULL,NULL,NULL,NULL,NULL,NULL,NULL,NULL,815,60,395552,html-button-response,0,NULL,NULL,NULL
758,NULL,NULL,NULL,NULL,NULL,NULL,NULL,NULL,NULL,5813,61,401367,html-slider-response,NULL,61,NULL,NULL
759,NULL,NULL,NULL,NULL,NULL,NULL,NULL,NULL,NULL,NULL,62,401369,call-function,NULL,NULL,NULL,NULL
760,13,Array,0.5,1,0,2,1,NULL,NULL,NULL,63,417275,pong,NULL,NULL,NULL,NULL
761,NULL,NULL,NULL,NULL,NULL,NULL,NULL,NULL,NULL,1301,64,418578,html-button-response,0,NULL,NULL,NULL
762,NULL,NULL,NULL,NULL,NULL,NULL,NULL,NULL,NULL,1196,65,419776,html-button-response,1,NULL,NULL,NULL
763,NULL,NULL,NULL,NULL,NULL,NULL,NULL,NULL,NULL,2461,66,422239,html-slider-response,NULL,61,NULL,NULL
764,NULL,NULL,NULL,NULL,NULL,NULL,NULL,NULL,NULL,NULL,67,422241,call-function,NULL,NULL,NULL,NULL
765,15,Array,0.5,1,2,5,3,NULL,NULL,NULL,68,439811,pong,NULL,NULL,NULL,NULL
766,NULL,NULL,NULL,NULL,NULL,NULL,NULL,NULL,NULL,2056,69,441870,html-button-response,1,NULL,NULL,NULL
767,NULL,NULL,NULL,NULL,NULL,NULL,NULL,NULL,NULL,921,70,442793,html-button-response,2,NULL,NULL,NULL
768,NULL,NULL,NULL,NULL,NULL,NULL,NULL,NULL,NULL,1602,71,444396,html-slider-response,NULL,15,NULL,NULL
769,NULL,NULL,NULL,NULL,NULL,NULL,NULL,NULL,NULL,NULL,72,444399,call-function,NULL,NULL,NULL,NULL
770,13,Array,1.9,1,4,1,2,NULL,NULL,NULL,73,464712,pong,NULL,NULL,NULL,NULL
771,NULL,NULL,NULL,NULL,NULL,NULL,NULL,NULL,NULL,7133,74,471849,html-button-response,2,NULL,NULL,NULL
772,NULL,NULL,NULL,NULL,NULL,NULL,NULL,NULL,NULL,3940,75,475790,html-button-response,0,NULL,NULL,NULL
773,NULL,NULL,NULL,NULL,NULL,NULL,NULL,NULL,NULL,2319,76,478112,html-slider-response,NULL,65,NULL,NULL
774,NULL,NULL,NULL,NULL,NULL,NULL,NULL,NULL,NULL,NULL,77,478114,call-function,NULL,NULL,NULL,NULL
775,15,Array,1.9,1,4,0,2,NULL,NULL,NULL,78,498296,pong,NULL,NULL,NULL,NULL
776,NULL,NULL,NULL,NULL,NULL,NULL,NULL,NULL,NULL,1894,79,500194,html-button-response,1,NULL,NULL,NULL
777,NULL,NULL,NULL,NULL,NULL,NULL,NULL,NULL,NULL,1049,80,501247,html-button-response,1,NULL,NULL,NULL
778,NULL,NULL,NULL,NULL,NULL,NULL,NULL,NULL,NULL,1729,81,502979,html-slider-response,NULL,62,NULL,NULL
779,NULL,NULL,NULL,NULL,NULL,NULL,NULL,NULL,NULL,6735,0,6740,html-keyboard-response,NULL,NULL,NULL,NULL
780,13,Array,1.2,1,3,0,3,1,1,NULL,1,81955,pong,NULL,NULL,NULL,NULL
781,NULL,NULL,NULL,NULL,NULL,NULL,NULL,NULL,NULL,2536,2,84492,html-keyboard-response,NULL,NULL,NULL,NULL
782,15,Array,1.9,1,0,0,2,NULL,1,NULL,3,105489,pong,NULL,NULL,NULL,NULL
783,NULL,NULL,NULL,NULL,NULL,NULL,NULL,NULL,NULL,NULL,4,105492,call-function,NULL,NULL,NULL,NULL
784,NULL,NULL,NULL,NULL,NULL,NULL,NULL,NULL,NULL,1673,5,107167,html-keyboard-response,NULL,NULL,NULL,NULL
785,13,Array,0.5,1,0,0,1,NULL,1,NULL,6,124774,pong,NULL,NULL,NULL,NULL
786,NULL,NULL,NULL,NULL,NULL,NULL,NULL,NULL,NULL,1076,7,125857,html-keyboard-response,NULL,NULL,NULL,NULL
787,15,Array,1.9,1,2,1,1,NULL,NULL,NULL,8,144741,pong,NULL,NULL,NULL,NULL
788,NULL,NULL,NULL,NULL,NULL,NULL,NULL,NULL,NULL,2167,9,146912,html-button-response,0,NULL,NULL,NULL
789,NULL,NULL,NULL,NULL,NULL,NULL,NULL,NULL,NULL,1305,10,148219,html-button-response,2,NULL,NULL,NULL
790,NULL,NULL,NULL,NULL,NULL,NULL,NULL,NULL,NULL,3513,11,151736,html-slider-response,NULL,40,NULL,NULL
791,NULL,NULL,NULL,NULL,NULL,NULL,NULL,NULL,NULL,NULL,12,151739,call-function,NULL,NULL,NULL,NULL
792,15,Array,1.9,1,4,0,2,NULL,NULL,NULL,13,171960,pong,NULL,NULL,NULL,NULL
793,NULL,NULL,NULL,NULL,NULL,NULL,NULL,NULL,NULL,1783,14,173744,html-button-response,1,NULL,NULL,NULL
794,NULL,NULL,NULL,NULL,NULL,NULL,NULL,NULL,NULL,839,15,174586,html-button-response,1,NULL,NULL,NULL
795,NULL,NULL,NULL,NULL,NULL,NULL,NULL,NULL,NULL,894,16,175484,html-slider-response,NULL,50,NULL,NULL
796,NULL,NULL,NULL,NULL,NULL,NULL,NULL,NULL,NULL,NULL,17,175486,call-function,NULL,NULL,NULL,NULL
797,15,Array,1.2,1,5,1,1,NULL,NULL,NULL,18,198361,pong,NULL,NULL,NULL,NULL
798,NULL,NULL,NULL,NULL,NULL,NULL,NULL,NULL,NULL,3803,19,202166,html-button-response,0,NULL,NULL,NULL
799,NULL,NULL,NULL,NULL,NULL,NULL,NULL,NULL,NULL,1412,20,203580,html-button-response,2,NULL,NULL,NULL
800,NULL,NULL,NULL,NULL,NULL,NULL,NULL,NULL,NULL,2514,21,206097,html-slider-response,NULL,38,NULL,NULL
801,NULL,NULL,NULL,NULL,NULL,NULL,NULL,NULL,NULL,NULL,22,206099,call-function,NULL,NULL,NULL,NULL
802,15,Array,1.2,1,7,0,1,NULL,NULL,NULL,23,225463,pong,NULL,NULL,NULL,NULL
803,NULL,NULL,NULL,NULL,NULL,NULL,NULL,NULL,NULL,1936,24,227402,html-button-response,1,NULL,NULL,NULL
804,NULL,NULL,NULL,NULL,NULL,NULL,NULL,NULL,NULL,515,25,227918,html-button-response,1,NULL,NULL,NULL
805,NULL,NULL,NULL,NULL,NULL,NULL,NULL,NULL,NULL,1726,26,229647,html-slider-response,NULL,60,NULL,NULL
806,NULL,NULL,NULL,NULL,NULL,NULL,NULL,NULL,NULL,NULL,27,229650,call-function,NULL,NULL,NULL,NULL
807,17,Array,1.9,1,5,0,2,NULL,NULL,NULL,28,255482,pong,NULL,NULL,NULL,NULL
808,NULL,NULL,NULL,NULL,NULL,NULL,NULL,NULL,NULL,2484,29,257968,html-button-response,1,NULL,NULL,NULL
809,NULL,NULL,NULL,NULL,NULL,NULL,NULL,NULL,NULL,1032,30,259002,html-button-response,1,NULL,NULL,NULL
810,NULL,NULL,NULL,NULL,NULL,NULL,NULL,NULL,NULL,1817,31,260823,html-slider-response,NULL,60,NULL,NULL
811,NULL,NULL,NULL,NULL,NULL,NULL,NULL,NULL,NULL,NULL,32,260825,call-function,NULL,NULL,NULL,NULL
812,15,Array,0.5,1,2,2,1,NULL,NULL,NULL,33,276850,pong,NULL,NULL,NULL,NULL
813,NULL,NULL,NULL,NULL,NULL,NULL,NULL,NULL,NULL,1814,34,278666,html-button-response,0,NULL,NULL,NULL
814,NULL,NULL,NULL,NULL,NULL,NULL,NULL,NULL,NULL,1250,35,279918,html-button-response,2,NULL,NULL,NULL
815,NULL,NULL,NULL,NULL,NULL,NULL,NULL,NULL,NULL,2310,36,282230,html-slider-response,NULL,28,NULL,NULL
816,NULL,NULL,NULL,NULL,NULL,NULL,NULL,NULL,NULL,NULL,37,282233,call-function,NULL,NULL,NULL,NULL
817,17,Array,1.2,1,0,2,2,NULL,NULL,NULL,38,300518,pong,NULL,NULL,NULL,NULL
818,NULL,NULL,NULL,NULL,NULL,NULL,NULL,NULL,NULL,1542,39,302062,html-button-response,1,NULL,NULL,NULL
819,NULL,NULL,NULL,NULL,NULL,NULL,NULL,NULL,NULL,530,40,302594,html-button-response,1,NULL,NULL,NULL
820,NULL,NULL,NULL,NULL,NULL,NULL,NULL,NULL,NULL,1098,41,303695,html-slider-response,NULL,50,NULL,NULL
821,NULL,NULL,NULL,NULL,NULL,NULL,NULL,NULL,NULL,NULL,42,303699,call-function,NULL,NULL,NULL,NULL
822,15,Array,0.5,1,2,1,1,NULL,NULL,NULL,43,322051,pong,NULL,NULL,NULL,NULL
823,NULL,NULL,NULL,NULL,NULL,NULL,NULL,NULL,NULL,3024,44,325077,html-button-response,0,NULL,NULL,NULL
824,NULL,NULL,NULL,NULL,NULL,NULL,NULL,NULL,NULL,875,45,325955,html-button-response,2,NULL,NULL,NULL
825,NULL,NULL,NULL,NULL,NULL,NULL,NULL,NULL,NULL,2038,46,327995,html-slider-response,NULL,30,NULL,NULL
826,NULL,NULL,NULL,NULL,NULL,NULL,NULL,NULL,NULL,NULL,47,327997,call-function,NULL,NULL,NULL,NULL
827,15,Array,1.9,1,1,3,3,NULL,NULL,NULL,48,347604,pong,NULL,NULL,NULL,NULL
828,NULL,NULL,NULL,NULL,NULL,NULL,NULL,NULL,NULL,2106,49,349712,html-button-response,1,NULL,NULL,NULL
829,NULL,NULL,NULL,NULL,NULL,NULL,NULL,NULL,NULL,483,50,350198,html-button-response,1,NULL,NULL,NULL
830,NULL,NULL,NULL,NULL,NULL,NULL,NULL,NULL,NULL,1276,51,351477,html-slider-response,NULL,50,NULL,NULL
831,NULL,NULL,NULL,NULL,NULL,NULL,NULL,NULL,NULL,NULL,52,351479,call-function,NULL,NULL,NULL,NULL
832,13,Array,1.9,1,1,0,2,NULL,NULL,NULL,53,369071,pong,NULL,NULL,NULL,NULL
833,NULL,NULL,NULL,NULL,NULL,NULL,NULL,NULL,NULL,2129,54,371203,html-button-response,2,NULL,NULL,NULL
834,NULL,NULL,NULL,NULL,NULL,NULL,NULL,NULL,NULL,1502,55,372707,html-button-response,0,NULL,NULL,NULL
835,NULL,NULL,NULL,NULL,NULL,NULL,NULL,NULL,NULL,2181,56,374891,html-slider-response,NULL,60,NULL,NULL
836,NULL,NULL,NULL,NULL,NULL,NULL,NULL,NULL,NULL,NULL,57,374893,call-function,NULL,NULL,NULL,NULL
837,15,Array,1.9,1,0,0,2,NULL,NULL,NULL,58,391490,pong,NULL,NULL,NULL,NULL
838,NULL,NULL,NULL,NULL,NULL,NULL,NULL,NULL,NULL,3243,59,394735,html-button-response,2,NULL,NULL,NULL
839,NULL,NULL,NULL,NULL,NULL,NULL,NULL,NULL,NULL,815,60,395552,html-button-response,0,NULL,NULL,NULL
840,NULL,NULL,NULL,NULL,NULL,NULL,NULL,NULL,NULL,5813,61,401367,html-slider-response,NULL,61,NULL,NULL
841,NULL,NULL,NULL,NULL,NULL,NULL,NULL,NULL,NULL,NULL,62,401369,call-function,NULL,NULL,NULL,NULL
842,13,Array,0.5,1,0,2,1,NULL,NULL,NULL,63,417275,pong,NULL,NULL,NULL,NULL
843,NULL,NULL,NULL,NULL,NULL,NULL,NULL,NULL,NULL,1301,64,418578,html-button-response,0,NULL,NULL,NULL
844,NULL,NULL,NULL,NULL,NULL,NULL,NULL,NULL,NULL,1196,65,419776,html-button-response,1,NULL,NULL,NULL
845,NULL,NULL,NULL,NULL,NULL,NULL,NULL,NULL,NULL,2461,66,422239,html-slider-response,NULL,61,NULL,NULL
846,NULL,NULL,NULL,NULL,NULL,NULL,NULL,NULL,NULL,NULL,67,422241,call-function,NULL,NULL,NULL,NULL
847,15,Array,0.5,1,2,5,3,NULL,NULL,NULL,68,439811,pong,NULL,NULL,NULL,NULL
848,NULL,NULL,NULL,NULL,NULL,NULL,NULL,NULL,NULL,2056,69,441870,html-button-response,1,NULL,NULL,NULL
849,NULL,NULL,NULL,NULL,NULL,NULL,NULL,NULL,NULL,921,70,442793,html-button-response,2,NULL,NULL,NULL
850,NULL,NULL,NULL,NULL,NULL,NULL,NULL,NULL,NULL,1602,71,444396,html-slider-response,NULL,15,NULL,NULL
851,NULL,NULL,NULL,NULL,NULL,NULL,NULL,NULL,NULL,NULL,72,444399,call-function,NULL,NULL,NULL,NULL
852,13,Array,1.9,1,4,1,2,NULL,NULL,NULL,73,464712,pong,NULL,NULL,NULL,NULL
853,NULL,NULL,NULL,NULL,NULL,NULL,NULL,NULL,NULL,7133,74,471849,html-button-response,2,NULL,NULL,NULL
854,NULL,NULL,NULL,NULL,NULL,NULL,NULL,NULL,NULL,3940,75,475790,html-button-response,0,NULL,NULL,NULL
855,NULL,NULL,NULL,NULL,NULL,NULL,NULL,NULL,NULL,2319,76,478112,html-slider-response,NULL,65,NULL,NULL
856,NULL,NULL,NULL,NULL,NULL,NULL,NULL,NULL,NULL,NULL,77,478114,call-function,NULL,NULL,NULL,NULL
857,15,Array,1.9,1,4,0,2,NULL,NULL,NULL,78,498296,pong,NULL,NULL,NULL,NULL
858,NULL,NULL,NULL,NULL,NULL,NULL,NULL,NULL,NULL,1894,79,500194,html-button-response,1,NULL,NULL,NULL
859,NULL,NULL,NULL,NULL,NULL,NULL,NULL,NULL,NULL,1049,80,501247,html-button-response,1,NULL,NULL,NULL
860,NULL,NULL,NULL,NULL,NULL,NULL,NULL,NULL,NULL,1729,81,502979,html-slider-response,NULL,62,NULL,NULL
861,NULL,NULL,NULL,NULL,NULL,NULL,NULL,NULL,NULL,NULL,82,502982,call-function,NULL,NULL,NULL,NULL
862,15,Array,1.2,1,1,0,1,NULL,NULL,NULL,83,520464,pong,NULL,NULL,NULL,NULL
863,NULL,NULL,NULL,NULL,NULL,NULL,NULL,NULL,NULL,1220,84,521686,html-button-response,1,NULL,NULL,NULL
864,NULL,NULL,NULL,NULL,NULL,NULL,NULL,NULL,NULL,1771,85,523459,html-button-response,0,NULL,NULL,NULL
865,NULL,NULL,NULL,NULL,NULL,NULL,NULL,NULL,NULL,1822,86,525283,html-slider-response,NULL,60,NULL,NULL
866,NULL,NULL,NULL,NULL,NULL,NULL,NULL,NULL,NULL,6735,0,6740,html-keyboard-response,NULL,NULL,NULL,NULL
867,13,Array,1.2,1,3,0,3,1,1,NULL,1,81955,pong,NULL,NULL,NULL,NULL
868,NULL,NULL,NULL,NULL,NULL,NULL,NULL,NULL,NULL,2536,2,84492,html-keyboard-response,NULL,NULL,NULL,NULL
869,15,Array,1.9,1,0,0,2,NULL,1,NULL,3,105489,pong,NULL,NULL,NULL,NULL
870,NULL,NULL,NULL,NULL,NULL,NULL,NULL,NULL,NULL,NULL,4,105492,call-function,NULL,NULL,NULL,NULL
871,NULL,NULL,NULL,NULL,NULL,NULL,NULL,NULL,NULL,1673,5,107167,html-keyboard-response,NULL,NULL,NULL,NULL
872,13,Array,0.5,1,0,0,1,NULL,1,NULL,6,124774,pong,NULL,NULL,NULL,NULL
873,NULL,NULL,NULL,NULL,NULL,NULL,NULL,NULL,NULL,1076,7,125857,html-keyboard-response,NULL,NULL,NULL,NULL
874,15,Array,1.9,1,2,1,1,NULL,NULL,NULL,8,144741,pong,NULL,NULL,NULL,NULL
875,NULL,NULL,NULL,NULL,NULL,NULL,NULL,NULL,NULL,2167,9,146912,html-button-response,0,NULL,NULL,NULL
876,NULL,NULL,NULL,NULL,NULL,NULL,NULL,NULL,NULL,1305,10,148219,html-button-response,2,NULL,NULL,NULL
877,NULL,NULL,NULL,NULL,NULL,NULL,NULL,NULL,NULL,3513,11,151736,html-slider-response,NULL,40,NULL,NULL
878,NULL,NULL,NULL,NULL,NULL,NULL,NULL,NULL,NULL,NULL,12,151739,call-function,NULL,NULL,NULL,NULL
879,15,Array,1.9,1,4,0,2,NULL,NULL,NULL,13,171960,pong,NULL,NULL,NULL,NULL
880,NULL,NULL,NULL,NULL,NULL,NULL,NULL,NULL,NULL,1783,14,173744,html-button-response,1,NULL,NULL,NULL
881,NULL,NULL,NULL,NULL,NULL,NULL,NULL,NULL,NULL,839,15,174586,html-button-response,1,NULL,NULL,NULL
882,NULL,NULL,NULL,NULL,NULL,NULL,NULL,NULL,NULL,894,16,175484,html-slider-response,NULL,50,NULL,NULL
883,NULL,NULL,NULL,NULL,NULL,NULL,NULL,NULL,NULL,NULL,17,175486,call-function,NULL,NULL,NULL,NULL
884,15,Array,1.2,1,5,1,1,NULL,NULL,NULL,18,198361,pong,NULL,NULL,NULL,NULL
885,NULL,NULL,NULL,NULL,NULL,NULL,NULL,NULL,NULL,3803,19,202166,html-button-response,0,NULL,NULL,NULL
886,NULL,NULL,NULL,NULL,NULL,NULL,NULL,NULL,NULL,1412,20,203580,html-button-response,2,NULL,NULL,NULL
887,NULL,NULL,NULL,NULL,NULL,NULL,NULL,NULL,NULL,2514,21,206097,html-slider-response,NULL,38,NULL,NULL
888,NULL,NULL,NULL,NULL,NULL,NULL,NULL,NULL,NULL,NULL,22,206099,call-function,NULL,NULL,NULL,NULL
889,15,Array,1.2,1,7,0,1,NULL,NULL,NULL,23,225463,pong,NULL,NULL,NULL,NULL
890,NULL,NULL,NULL,NULL,NULL,NULL,NULL,NULL,NULL,1936,24,227402,html-button-response,1,NULL,NULL,NULL
891,NULL,NULL,NULL,NULL,NULL,NULL,NULL,NULL,NULL,515,25,227918,html-button-response,1,NULL,NULL,NULL
892,NULL,NULL,NULL,NULL,NULL,NULL,NULL,NULL,NULL,1726,26,229647,html-slider-response,NULL,60,NULL,NULL
893,NULL,NULL,NULL,NULL,NULL,NULL,NULL,NULL,NULL,NULL,27,229650,call-function,NULL,NULL,NULL,NULL
894,17,Array,1.9,1,5,0,2,NULL,NULL,NULL,28,255482,pong,NULL,NULL,NULL,NULL
895,NULL,NULL,NULL,NULL,NULL,NULL,NULL,NULL,NULL,2484,29,257968,html-button-response,1,NULL,NULL,NULL
896,NULL,NULL,NULL,NULL,NULL,NULL,NULL,NULL,NULL,1032,30,259002,html-button-response,1,NULL,NULL,NULL
897,NULL,NULL,NULL,NULL,NULL,NULL,NULL,NULL,NULL,1817,31,260823,html-slider-response,NULL,60,NULL,NULL
898,NULL,NULL,NULL,NULL,NULL,NULL,NULL,NULL,NULL,NULL,32,260825,call-function,NULL,NULL,NULL,NULL
899,15,Array,0.5,1,2,2,1,NULL,NULL,NULL,33,276850,pong,NULL,NULL,NULL,NULL
900,NULL,NULL,NULL,NULL,NULL,NULL,NULL,NULL,NULL,1814,34,278666,html-button-response,0,NULL,NULL,NULL
901,NULL,NULL,NULL,NULL,NULL,NULL,NULL,NULL,NULL,1250,35,279918,html-button-response,2,NULL,NULL,NULL
902,NULL,NULL,NULL,NULL,NULL,NULL,NULL,NULL,NULL,2310,36,282230,html-slider-response,NULL,28,NULL,NULL
903,NULL,NULL,NULL,NULL,NULL,NULL,NULL,NULL,NULL,NULL,37,282233,call-function,NULL,NULL,NULL,NULL
904,17,Array,1.2,1,0,2,2,NULL,NULL,NULL,38,300518,pong,NULL,NULL,NULL,NULL
905,NULL,NULL,NULL,NULL,NULL,NULL,NULL,NULL,NULL,1542,39,302062,html-button-response,1,NULL,NULL,NULL
906,NULL,NULL,NULL,NULL,NULL,NULL,NULL,NULL,NULL,530,40,302594,html-button-response,1,NULL,NULL,NULL
907,NULL,NULL,NULL,NULL,NULL,NULL,NULL,NULL,NULL,1098,41,303695,html-slider-response,NULL,50,NULL,NULL
908,NULL,NULL,NULL,NULL,NULL,NULL,NULL,NULL,NULL,NULL,42,303699,call-function,NULL,NULL,NULL,NULL
909,15,Array,0.5,1,2,1,1,NULL,NULL,NULL,43,322051,pong,NULL,NULL,NULL,NULL
910,NULL,NULL,NULL,NULL,NULL,NULL,NULL,NULL,NULL,3024,44,325077,html-button-response,0,NULL,NULL,NULL
911,NULL,NULL,NULL,NULL,NULL,NULL,NULL,NULL,NULL,875,45,325955,html-button-response,2,NULL,NULL,NULL
912,NULL,NULL,NULL,NULL,NULL,NULL,NULL,NULL,NULL,2038,46,327995,html-slider-response,NULL,30,NULL,NULL
913,NULL,NULL,NULL,NULL,NULL,NULL,NULL,NULL,NULL,NULL,47,327997,call-function,NULL,NULL,NULL,NULL
914,15,Array,1.9,1,1,3,3,NULL,NULL,NULL,48,347604,pong,NULL,NULL,NULL,NULL
915,NULL,NULL,NULL,NULL,NULL,NULL,NULL,NULL,NULL,2106,49,349712,html-button-response,1,NULL,NULL,NULL
916,NULL,NULL,NULL,NULL,NULL,NULL,NULL,NULL,NULL,483,50,350198,html-button-response,1,NULL,NULL,NULL
917,NULL,NULL,NULL,NULL,NULL,NULL,NULL,NULL,NULL,1276,51,351477,html-slider-response,NULL,50,NULL,NULL
918,NULL,NULL,NULL,NULL,NULL,NULL,NULL,NULL,NULL,NULL,52,351479,call-function,NULL,NULL,NULL,NULL
919,13,Array,1.9,1,1,0,2,NULL,NULL,NULL,53,369071,pong,NULL,NULL,NULL,NULL
920,NULL,NULL,NULL,NULL,NULL,NULL,NULL,NULL,NULL,2129,54,371203,html-button-response,2,NULL,NULL,NULL
921,NULL,NULL,NULL,NULL,NULL,NULL,NULL,NULL,NULL,1502,55,372707,html-button-response,0,NULL,NULL,NULL
922,NULL,NULL,NULL,NULL,NULL,NULL,NULL,NULL,NULL,2181,56,374891,html-slider-response,NULL,60,NULL,NULL
923,NULL,NULL,NULL,NULL,NULL,NULL,NULL,NULL,NULL,NULL,57,374893,call-function,NULL,NULL,NULL,NULL
924,15,Array,1.9,1,0,0,2,NULL,NULL,NULL,58,391490,pong,NULL,NULL,NULL,NULL
925,NULL,NULL,NULL,NULL,NULL,NULL,NULL,NULL,NULL,3243,59,394735,html-button-response,2,NULL,NULL,NULL
926,NULL,NULL,NULL,NULL,NULL,NULL,NULL,NULL,NULL,815,60,395552,html-button-response,0,NULL,NULL,NULL
927,NULL,NULL,NULL,NULL,NULL,NULL,NULL,NULL,NULL,5813,61,401367,html-slider-response,NULL,61,NULL,NULL
928,NULL,NULL,NULL,NULL,NULL,NULL,NULL,NULL,NULL,NULL,62,401369,call-function,NULL,NULL,NULL,NULL
929,13,Array,0.5,1,0,2,1,NULL,NULL,NULL,63,417275,pong,NULL,NULL,NULL,NULL
930,NULL,NULL,NULL,NULL,NULL,NULL,NULL,NULL,NULL,1301,64,418578,html-button-response,0,NULL,NULL,NULL
931,NULL,NULL,NULL,NULL,NULL,NULL,NULL,NULL,NULL,1196,65,419776,html-button-response,1,NULL,NULL,NULL
932,NULL,NULL,NULL,NULL,NULL,NULL,NULL,NULL,NULL,2461,66,422239,html-slider-response,NULL,61,NULL,NULL
933,NULL,NULL,NULL,NULL,NULL,NULL,NULL,NULL,NULL,NULL,67,422241,call-function,NULL,NULL,NULL,NULL
934,15,Array,0.5,1,2,5,3,NULL,NULL,NULL,68,439811,pong,NULL,NULL,NULL,NULL
935,NULL,NULL,NULL,NULL,NULL,NULL,NULL,NULL,NULL,2056,69,441870,html-button-response,1,NULL,NULL,NULL
936,NULL,NULL,NULL,NULL,NULL,NULL,NULL,NULL,NULL,921,70,442793,html-button-response,2,NULL,NULL,NULL
937,NULL,NULL,NULL,NULL,NULL,NULL,NULL,NULL,NULL,1602,71,444396,html-slider-response,NULL,15,NULL,NULL
938,NULL,NULL,NULL,NULL,NULL,NULL,NULL,NULL,NULL,NULL,72,444399,call-function,NULL,NULL,NULL,NULL
939,13,Array,1.9,1,4,1,2,NULL,NULL,NULL,73,464712,pong,NULL,NULL,NULL,NULL
940,NULL,NULL,NULL,NULL,NULL,NULL,NULL,NULL,NULL,7133,74,471849,html-button-response,2,NULL,NULL,NULL
941,NULL,NULL,NULL,NULL,NULL,NULL,NULL,NULL,NULL,3940,75,475790,html-button-response,0,NULL,NULL,NULL
942,NULL,NULL,NULL,NULL,NULL,NULL,NULL,NULL,NULL,2319,76,478112,html-slider-response,NULL,65,NULL,NULL
943,NULL,NULL,NULL,NULL,NULL,NULL,NULL,NULL,NULL,NULL,77,478114,call-function,NULL,NULL,NULL,NULL
944,15,Array,1.9,1,4,0,2,NULL,NULL,NULL,78,498296,pong,NULL,NULL,NULL,NULL
945,NULL,NULL,NULL,NULL,NULL,NULL,NULL,NULL,NULL,1894,79,500194,html-button-response,1,NULL,NULL,NULL
946,NULL,NULL,NULL,NULL,NULL,NULL,NULL,NULL,NULL,1049,80,501247,html-button-response,1,NULL,NULL,NULL
947,NULL,NULL,NULL,NULL,NULL,NULL,NULL,NULL,NULL,1729,81,502979,html-slider-response,NULL,62,NULL,NULL
948,NULL,NULL,NULL,NULL,NULL,NULL,NULL,NULL,NULL,NULL,82,502982,call-function,NULL,NULL,NULL,NULL
949,15,Array,1.2,1,1,0,1,NULL,NULL,NULL,83,520464,pong,NULL,NULL,NULL,NULL
950,NULL,NULL,NULL,NULL,NULL,NULL,NULL,NULL,NULL,1220,84,521686,html-button-response,1,NULL,NULL,NULL
951,NULL,NULL,NULL,NULL,NULL,NULL,NULL,NULL,NULL,1771,85,523459,html-button-response,0,NULL,NULL,NULL
952,NULL,NULL,NULL,NULL,NULL,NULL,NULL,NULL,NULL,1822,86,525283,html-slider-response,NULL,60,NULL,NULL
953,NULL,NULL,NULL,NULL,NULL,NULL,NULL,NULL,NULL,NULL,87,525285,call-function,NULL,NULL,NULL,NULL
954,13,Array,0.5,1,1,0,1,NULL,NULL,NULL,88,547082,pong,NULL,NULL,NULL,NULL
955,NULL,NULL,NULL,NULL,NULL,NULL,NULL,NULL,NULL,3860,89,550945,html-button-response,1,NULL,NULL,NULL
956,NULL,NULL,NULL,NULL,NULL,NULL,NULL,NULL,NULL,609,90,551556,html-button-response,1,NULL,NULL,NULL
957,NULL,NULL,NULL,NULL,NULL,NULL,NULL,NULL,NULL,2323,91,553882,html-slider-response,NULL,56,NULL,NULL
958,NULL,NULL,NULL,NULL,NULL,NULL,NULL,NULL,NULL,6735,0,6740,html-keyboard-response,NULL,NULL,NULL,NULL
959,13,Array,1.2,1,3,0,3,1,1,NULL,1,81955,pong,NULL,NULL,NULL,NULL
960,NULL,NULL,NULL,NULL,NULL,NULL,NULL,NULL,NULL,2536,2,84492,html-keyboard-response,NULL,NULL,NULL,NULL
961,15,Array,1.9,1,0,0,2,NULL,1,NULL,3,105489,pong,NULL,NULL,NULL,NULL
962,NULL,NULL,NULL,NULL,NULL,NULL,NULL,NULL,NULL,NULL,4,105492,call-function,NULL,NULL,NULL,NULL
963,NULL,NULL,NULL,NULL,NULL,NULL,NULL,NULL,NULL,1673,5,107167,html-keyboard-response,NULL,NULL,NULL,NULL
964,13,Array,0.5,1,0,0,1,NULL,1,NULL,6,124774,pong,NULL,NULL,NULL,NULL
965,NULL,NULL,NULL,NULL,NULL,NULL,NULL,NULL,NULL,1076,7,125857,html-keyboard-response,NULL,NULL,NULL,NULL
966,15,Array,1.9,1,2,1,1,NULL,NULL,NULL,8,144741,pong,NULL,NULL,NULL,NULL
967,NULL,NULL,NULL,NULL,NULL,NULL,NULL,NULL,NULL,2167,9,146912,html-button-response,0,NULL,NULL,NULL
968,NULL,NULL,NULL,NULL,NULL,NULL,NULL,NULL,NULL,1305,10,148219,html-button-response,2,NULL,NULL,NULL
969,NULL,NULL,NULL,NULL,NULL,NULL,NULL,NULL,NULL,3513,11,151736,html-slider-response,NULL,40,NULL,NULL
970,NULL,NULL,NULL,NULL,NULL,NULL,NULL,NULL,NULL,NULL,12,151739,call-function,NULL,NULL,NULL,NULL
971,15,Array,1.9,1,4,0,2,NULL,NULL,NULL,13,171960,pong,NULL,NULL,NULL,NULL
972,NULL,NULL,NULL,NULL,NULL,NULL,NULL,NULL,NULL,1783,14,173744,html-button-response,1,NULL,NULL,NULL
973,NULL,NULL,NULL,NULL,NULL,NULL,NULL,NULL,NULL,839,15,174586,html-button-response,1,NULL,NULL,NULL
974,NULL,NULL,NULL,NULL,NULL,NULL,NULL,NULL,NULL,894,16,175484,html-slider-response,NULL,50,NULL,NULL
975,NULL,NULL,NULL,NULL,NULL,NULL,NULL,NULL,NULL,NULL,17,175486,call-function,NULL,NULL,NULL,NULL
976,15,Array,1.2,1,5,1,1,NULL,NULL,NULL,18,198361,pong,NULL,NULL,NULL,NULL
977,NULL,NULL,NULL,NULL,NULL,NULL,NULL,NULL,NULL,3803,19,202166,html-button-response,0,NULL,NULL,NULL
978,NULL,NULL,NULL,NULL,NULL,NULL,NULL,NULL,NULL,1412,20,203580,html-button-response,2,NULL,NULL,NULL
979,NULL,NULL,NULL,NULL,NULL,NULL,NULL,NULL,NULL,2514,21,206097,html-slider-response,NULL,38,NULL,NULL
980,NULL,NULL,NULL,NULL,NULL,NULL,NULL,NULL,NULL,NULL,22,206099,call-function,NULL,NULL,NULL,NULL
981,15,Array,1.2,1,7,0,1,NULL,NULL,NULL,23,225463,pong,NULL,NULL,NULL,NULL
982,NULL,NULL,NULL,NULL,NULL,NULL,NULL,NULL,NULL,1936,24,227402,html-button-response,1,NULL,NULL,NULL
983,NULL,NULL,NULL,NULL,NULL,NULL,NULL,NULL,NULL,515,25,227918,html-button-response,1,NULL,NULL,NULL
984,NULL,NULL,NULL,NULL,NULL,NULL,NULL,NULL,NULL,1726,26,229647,html-slider-response,NULL,60,NULL,NULL
985,NULL,NULL,NULL,NULL,NULL,NULL,NULL,NULL,NULL,NULL,27,229650,call-function,NULL,NULL,NULL,NULL
986,17,Array,1.9,1,5,0,2,NULL,NULL,NULL,28,255482,pong,NULL,NULL,NULL,NULL
987,NULL,NULL,NULL,NULL,NULL,NULL,NULL,NULL,NULL,2484,29,257968,html-button-response,1,NULL,NULL,NULL
988,NULL,NULL,NULL,NULL,NULL,NULL,NULL,NULL,NULL,1032,30,259002,html-button-response,1,NULL,NULL,NULL
989,NULL,NULL,NULL,NULL,NULL,NULL,NULL,NULL,NULL,1817,31,260823,html-slider-response,NULL,60,NULL,NULL
990,NULL,NULL,NULL,NULL,NULL,NULL,NULL,NULL,NULL,NULL,32,260825,call-function,NULL,NULL,NULL,NULL
991,15,Array,0.5,1,2,2,1,NULL,NULL,NULL,33,276850,pong,NULL,NULL,NULL,NULL
992,NULL,NULL,NULL,NULL,NULL,NULL,NULL,NULL,NULL,1814,34,278666,html-button-response,0,NULL,NULL,NULL
993,NULL,NULL,NULL,NULL,NULL,NULL,NULL,NULL,NULL,1250,35,279918,html-button-response,2,NULL,NULL,NULL
994,NULL,NULL,NULL,NULL,NULL,NULL,NULL,NULL,NULL,2310,36,282230,html-slider-response,NULL,28,NULL,NULL
995,NULL,NULL,NULL,NULL,NULL,NULL,NULL,NULL,NULL,NULL,37,282233,call-function,NULL,NULL,NULL,NULL
996,17,Array,1.2,1,0,2,2,NULL,NULL,NULL,38,300518,pong,NULL,NULL,NULL,NULL
997,NULL,NULL,NULL,NULL,NULL,NULL,NULL,NULL,NULL,1542,39,302062,html-button-response,1,NULL,NULL,NULL
998,NULL,NULL,NULL,NULL,NULL,NULL,NULL,NULL,NULL,530,40,302594,html-button-response,1,NULL,NULL,NULL
999,NULL,NULL,NULL,NULL,NULL,NULL,NULL,NULL,NULL,1098,41,303695,html-slider-response,NULL,50,NULL,NULL
1000,NULL,NULL,NULL,NULL,NULL,NULL,NULL,NULL,NULL,NULL,42,303699,call-function,NULL,NULL,NULL,NULL
1001,15,Array,0.5,1,2,1,1,NULL,NULL,NULL,43,322051,pong,NULL,NULL,NULL,NULL
1002,NULL,NULL,NULL,NULL,NULL,NULL,NULL,NULL,NULL,3024,44,325077,html-button-response,0,NULL,NULL,NULL
1003,NULL,NULL,NULL,NULL,NULL,NULL,NULL,NULL,NULL,875,45,325955,html-button-response,2,NULL,NULL,NULL
1004,NULL,NULL,NULL,NULL,NULL,NULL,NULL,NULL,NULL,2038,46,327995,html-slider-response,NULL,30,NULL,NULL
1005,NULL,NULL,NULL,NULL,NULL,NULL,NULL,NULL,NULL,NULL,47,327997,call-function,NULL,NULL,NULL,NULL
1006,15,Array,1.9,1,1,3,3,NULL,NULL,NULL,48,347604,pong,NULL,NULL,NULL,NULL
1007,NULL,NULL,NULL,NULL,NULL,NULL,NULL,NULL,NULL,2106,49,349712,html-button-response,1,NULL,NULL,NULL
1008,NULL,NULL,NULL,NULL,NULL,NULL,NULL,NULL,NULL,483,50,350198,html-button-response,1,NULL,NULL,NULL
1009,NULL,NULL,NULL,NULL,NULL,NULL,NULL,NULL,NULL,1276,51,351477,html-slider-response,NULL,50,NULL,NULL
1010,NULL,NULL,NULL,NULL,NULL,NULL,NULL,NULL,NULL,NULL,52,351479,call-function,NULL,NULL,NULL,NULL
1011,13,Array,1.9,1,1,0,2,NULL,NULL,NULL,53,369071,pong,NULL,NULL,NULL,NULL
1012,NULL,NULL,NULL,NULL,NULL,NULL,NULL,NULL,NULL,2129,54,371203,html-button-response,2,NULL,NULL,NULL
1013,NULL,NULL,NULL,NULL,NULL,NULL,NULL,NULL,NULL,1502,55,372707,html-button-response,0,NULL,NULL,NULL
1014,NULL,NULL,NULL,NULL,NULL,NULL,NULL,NULL,NULL,2181,56,374891,html-slider-response,NULL,60,NULL,NULL
1015,NULL,NULL,NULL,NULL,NULL,NULL,NULL,NULL,NULL,NULL,57,374893,call-function,NULL,NULL,NULL,NULL
1016,15,Array,1.9,1,0,0,2,NULL,NULL,NULL,58,391490,pong,NULL,NULL,NULL,NULL
1017,NULL,NULL,NULL,NULL,NULL,NULL,NULL,NULL,NULL,3243,59,394735,html-button-response,2,NULL,NULL,NULL
1018,NULL,NULL,NULL,NULL,NULL,NULL,NULL,NULL,NULL,815,60,395552,html-button-response,0,NULL,NULL,NULL
1019,NULL,NULL,NULL,NULL,NULL,NULL,NULL,NULL,NULL,5813,61,401367,html-slider-response,NULL,61,NULL,NULL
1020,NULL,NULL,NULL,NULL,NULL,NULL,NULL,NULL,NULL,NULL,62,401369,call-function,NULL,NULL,NULL,NULL
1021,13,Array,0.5,1,0,2,1,NULL,NULL,NULL,63,417275,pong,NULL,NULL,NULL,NULL
1022,NULL,NULL,NULL,NULL,NULL,NULL,NULL,NULL,NULL,1301,64,418578,html-button-response,0,NULL,NULL,NULL
1023,NULL,NULL,NULL,NULL,NULL,NULL,NULL,NULL,NULL,1196,65,419776,html-button-response,1,NULL,NULL,NULL
1024,NULL,NULL,NULL,NULL,NULL,NULL,NULL,NULL,NULL,2461,66,422239,html-slider-response,NULL,61,NULL,NULL
1025,NULL,NULL,NULL,NULL,NULL,NULL,NULL,NULL,NULL,NULL,67,422241,call-function,NULL,NULL,NULL,NULL
1026,15,Array,0.5,1,2,5,3,NULL,NULL,NULL,68,439811,pong,NULL,NULL,NULL,NULL
1027,NULL,NULL,NULL,NULL,NULL,NULL,NULL,NULL,NULL,2056,69,441870,html-button-response,1,NULL,NULL,NULL
1028,NULL,NULL,NULL,NULL,NULL,NULL,NULL,NULL,NULL,921,70,442793,html-button-response,2,NULL,NULL,NULL
1029,NULL,NULL,NULL,NULL,NULL,NULL,NULL,NULL,NULL,1602,71,444396,html-slider-response,NULL,15,NULL,NULL
1030,NULL,NULL,NULL,NULL,NULL,NULL,NULL,NULL,NULL,NULL,72,444399,call-function,NULL,NULL,NULL,NULL
1031,13,Array,1.9,1,4,1,2,NULL,NULL,NULL,73,464712,pong,NULL,NULL,NULL,NULL
1032,NULL,NULL,NULL,NULL,NULL,NULL,NULL,NULL,NULL,7133,74,471849,html-button-response,2,NULL,NULL,NULL
1033,NULL,NULL,NULL,NULL,NULL,NULL,NULL,NULL,NULL,3940,75,475790,html-button-response,0,NULL,NULL,NULL
1034,NULL,NULL,NULL,NULL,NULL,NULL,NULL,NULL,NULL,2319,76,478112,html-slider-response,NULL,65,NULL,NULL
1035,NULL,NULL,NULL,NULL,NULL,NULL,NULL,NULL,NULL,NULL,77,478114,call-function,NULL,NULL,NULL,NULL
1036,15,Array,1.9,1,4,0,2,NULL,NULL,NULL,78,498296,pong,NULL,NULL,NULL,NULL
1037,NULL,NULL,NULL,NULL,NULL,NULL,NULL,NULL,NULL,1894,79,500194,html-button-response,1,NULL,NULL,NULL
1038,NULL,NULL,NULL,NULL,NULL,NULL,NULL,NULL,NULL,1049,80,501247,html-button-response,1,NULL,NULL,NULL
1039,NULL,NULL,NULL,NULL,NULL,NULL,NULL,NULL,NULL,1729,81,502979,html-slider-response,NULL,62,NULL,NULL
1040,NULL,NULL,NULL,NULL,NULL,NULL,NULL,NULL,NULL,NULL,82,502982,call-function,NULL,NULL,NULL,NULL
1041,15,Array,1.2,1,1,0,1,NULL,NULL,NULL,83,520464,pong,NULL,NULL,NULL,NULL
1042,NULL,NULL,NULL,NULL,NULL,NULL,NULL,NULL,NULL,1220,84,521686,html-button-response,1,NULL,NULL,NULL
1043,NULL,NULL,NULL,NULL,NULL,NULL,NULL,NULL,NULL,1771,85,523459,html-button-response,0,NULL,NULL,NULL
1044,NULL,NULL,NULL,NULL,NULL,NULL,NULL,NULL,NULL,1822,86,525283,html-slider-response,NULL,60,NULL,NULL
1045,NULL,NULL,NULL,NULL,NULL,NULL,NULL,NULL,NULL,NULL,87,525285,call-function,NULL,NULL,NULL,NULL
1046,13,Array,0.5,1,1,0,1,NULL,NULL,NULL,88,547082,pong,NULL,NULL,NULL,NULL
1047,NULL,NULL,NULL,NULL,NULL,NULL,NULL,NULL,NULL,3860,89,550945,html-button-response,1,NULL,NULL,NULL
1048,NULL,NULL,NULL,NULL,NULL,NULL,NULL,NULL,NULL,609,90,551556,html-button-response,1,NULL,NULL,NULL
1049,NULL,NULL,NULL,NULL,NULL,NULL,NULL,NULL,NULL,2323,91,553882,html-slider-response,NULL,56,NULL,NULL
1050,NULL,NULL,NULL,NULL,NULL,NULL,NULL,NULL,NULL,NULL,92,553886,call-function,NULL,NULL,NULL,NULL
1051,13,Array,1.9,1,2,0,1,NULL,NULL,NULL,93,571917,pong,NULL,NULL,NULL,NULL
