row,speed,bg_color,humanPaddleSize,aiPaddleSize,humanScore,aiScore,guess,tutorial,practice,rt,trial_index,time_elapsed,trial_type,button_pressed,response,responses,worker_id,fg_color,question,round,phase
1,NULL,NULL,NULL,NULL,NULL,NULL,NULL,NULL,NULL,26216,0,26218,html-keyboard-response,NULL,NULL,NULL,5cb64c808549c90016ed9fe1,NULL,NULL,NULL,NULL
2,13,mediumorchid,1.2,1,1,0,1,1,0,NULL,1,81443,pong,NULL,NULL,NULL,5cb64c808549c90016ed9fe1,#3077FF,NULL,NULL,NULL
3,NULL,NULL,NULL,NULL,NULL,NULL,NULL,NULL,NULL,6360,2,87804,html-keyboard-response,NULL,NULL,NULL,5cb64c808549c90016ed9fe1,NULL,NULL,NULL,NULL
4,13,mediumorchid,1.9,1,0,0,1,NULL,1,NULL,3,107923,pong,NULL,NULL,NULL,5cb64c808549c90016ed9fe1,#3077FF,NULL,NULL,NULL
5,NULL,NULL,NULL,NULL,NULL,NULL,NULL,NULL,NULL,51,4,107974,html-keyboard-response,NULL,NULL,NULL,5cb64c808549c90016ed9fe1,NULL,NULL,NULL,NULL
6,13,mediumorchid,1.9,1,0,1,3,NULL,1,NULL,5,127820,pong,NULL,NULL,NULL,5cb64c808549c90016ed9fe1,#3077FF,NULL,NULL,NULL
7,NULL,NULL,NULL,NULL,NULL,NULL,NULL,NULL,NULL,2613,6,130433,html-keyboard-response,NULL,NULL,NULL,5cb64c808549c90016ed9fe1,NULL,NULL,NULL,NULL
8,17,mediumorchid,0.5,1,0,1,1,NULL,NULL,NULL,7,149467,pong,NULL,NULL,NULL,5cb64c808549c90016ed9fe1,#3077FF,NULL,1,real-level
9,NULL,NULL,NULL,NULL,NULL,NULL,NULL,NULL,NULL,5123,8,154591,html-button-response,2,NULL,NULL,5cb64c808549c90016ed9fe1,NULL,length,0,NULL
10,NULL,NULL,NULL,NULL,NULL,NULL,NULL,NULL,NULL,3936,9,158527,html-button-response,2,NULL,NULL,5cb64c808549c90016ed9fe1,NULL,difficulty,0,NULL
11,NULL,NULL,NULL,NULL,NULL,NULL,NULL,NULL,NULL,5522,10,164051,html-slider-response,NULL,22,NULL,5cb64c808549c90016ed9fe1,NULL,performance,0,NULL
12,15,mediumorchid,1.2,1,1,0,3,NULL,NULL,NULL,11,181513,pong,NULL,NULL,NULL,5cb64c808549c90016ed9fe1,#3077FF,NULL,2,real-level
13,NULL,NULL,NULL,NULL,NULL,NULL,NULL,NULL,NULL,2014,12,183527,html-button-response,1,NULL,NULL,5cb64c808549c90016ed9fe1,NULL,length,0,NULL
14,NULL,NULL,NULL,NULL,NULL,NULL,NULL,NULL,NULL,1361,13,184888,html-button-response,1,NULL,NULL,5cb64c808549c90016ed9fe1,NULL,difficulty,0,NULL
15,NULL,NULL,NULL,NULL,NULL,NULL,NULL,NULL,NULL,2359,14,187247,html-slider-response,NULL,50,NULL,5cb64c808549c90016ed9fe1,NULL,performance,0,NULL
16,13,mediumorchid,1.2,1,0,0,3,NULL,NULL,NULL,15,202444,pong,NULL,NULL,NULL,5cb64c808549c90016ed9fe1,#3077FF,NULL,3,real-level
17,NULL,NULL,NULL,NULL,NULL,NULL,NULL,NULL,NULL,2331,16,204775,html-button-response,1,NULL,NULL,5cb64c808549c90016ed9fe1,NULL,length,0,NULL
18,NULL,NULL,NULL,NULL,NULL,NULL,NULL,NULL,NULL,1344,17,206119,html-button-response,1,NULL,NULL,5cb64c808549c90016ed9fe1,NULL,difficulty,0,NULL
19,NULL,NULL,NULL,NULL,NULL,NULL,NULL,NULL,NULL,4411,18,210531,html-slider-response,NULL,56,NULL,5cb64c808549c90016ed9fe1,NULL,performance,0,NULL
20,15,mediumorchid,1.9,1,0,0,1,NULL,NULL,NULL,19,227725,pong,NULL,NULL,NULL,5cb64c808549c90016ed9fe1,#3077FF,NULL,4,real-level
21,NULL,NULL,NULL,NULL,NULL,NULL,NULL,NULL,NULL,2062,20,229787,html-button-response,1,NULL,NULL,5cb64c808549c90016ed9fe1,NULL,length,0,NULL
22,NULL,NULL,NULL,NULL,NULL,NULL,NULL,NULL,NULL,3063,21,232851,html-button-response,0,NULL,NULL,5cb64c808549c90016ed9fe1,NULL,difficulty,0,NULL
23,NULL,NULL,NULL,NULL,NULL,NULL,NULL,NULL,NULL,4991,22,237843,html-slider-response,NULL,73,NULL,5cb64c808549c90016ed9fe1,NULL,performance,0,NULL
24,13,mediumorchid,1.2,1,1,0,1,NULL,NULL,NULL,23,255538,pong,NULL,NULL,NULL,5cb64c808549c90016ed9fe1,#3077FF,NULL,5,real-level
25,NULL,NULL,NULL,NULL,NULL,NULL,NULL,NULL,NULL,2905,24,258443,html-button-response,1,NULL,NULL,5cb64c808549c90016ed9fe1,NULL,length,0,NULL
26,NULL,NULL,NULL,NULL,NULL,NULL,NULL,NULL,NULL,8320,25,266763,html-button-response,1,NULL,NULL,5cb64c808549c90016ed9fe1,NULL,difficulty,0,NULL
27,NULL,NULL,NULL,NULL,NULL,NULL,NULL,NULL,NULL,3796,26,270559,html-slider-response,NULL,50,NULL,5cb64c808549c90016ed9fe1,NULL,performance,0,NULL
28,17,mediumorchid,1.2,1,0,0,2,NULL,NULL,NULL,27,289650,pong,NULL,NULL,NULL,5cb64c808549c90016ed9fe1,#3077FF,NULL,6,real-level
29,NULL,NULL,NULL,NULL,NULL,NULL,NULL,NULL,NULL,1673,28,291323,html-button-response,1,NULL,NULL,5cb64c808549c90016ed9fe1,NULL,length,0,NULL
30,NULL,NULL,NULL,NULL,NULL,NULL,NULL,NULL,NULL,2880,29,294203,html-button-response,1,NULL,NULL,5cb64c808549c90016ed9fe1,NULL,difficulty,0,NULL
31,NULL,NULL,NULL,NULL,NULL,NULL,NULL,NULL,NULL,2843,30,297047,html-slider-response,NULL,56,NULL,5cb64c808549c90016ed9fe1,NULL,performance,0,NULL
32,17,mediumorchid,0.5,1,0,2,3,NULL,NULL,NULL,31,315979,pong,NULL,NULL,NULL,5cb64c808549c90016ed9fe1,#3077FF,NULL,7,real-level
33,NULL,NULL,NULL,NULL,NULL,NULL,NULL,NULL,NULL,2260,32,318239,html-button-response,1,NULL,NULL,5cb64c808549c90016ed9fe1,NULL,length,0,NULL
34,NULL,NULL,NULL,NULL,NULL,NULL,NULL,NULL,NULL,915,33,319155,html-button-response,2,NULL,NULL,5cb64c808549c90016ed9fe1,NULL,difficulty,0,NULL
35,NULL,NULL,NULL,NULL,NULL,NULL,NULL,NULL,NULL,2815,34,321971,html-slider-response,NULL,37,NULL,5cb64c808549c90016ed9fe1,NULL,performance,0,NULL
36,15,mediumorchid,0.5,1,1,1,,NULL,NULL,NULL,35,337194,pong,NULL,NULL,NULL,5cb64c808549c90016ed9fe1,#3077FF,NULL,8,real-level
37,NULL,NULL,NULL,NULL,NULL,NULL,NULL,NULL,NULL,1684,36,338879,html-button-response,1,NULL,NULL,5cb64c808549c90016ed9fe1,NULL,length,0,NULL
38,NULL,NULL,NULL,NULL,NULL,NULL,NULL,NULL,NULL,2179,37,341060,html-button-response,2,NULL,NULL,5cb64c808549c90016ed9fe1,NULL,difficulty,0,NULL
39,NULL,NULL,NULL,NULL,NULL,NULL,NULL,NULL,NULL,28391,38,369451,html-slider-response,NULL,46,NULL,5cb64c808549c90016ed9fe1,NULL,performance,0,NULL
40,17,mediumorchid,1.2,1,2,0,2,NULL,NULL,NULL,39,388671,pong,NULL,NULL,NULL,5cb64c808549c90016ed9fe1,#3077FF,NULL,9,real-level
41,NULL,NULL,NULL,NULL,NULL,NULL,NULL,NULL,NULL,1824,40,390495,html-button-response,1,NULL,NULL,5cb64c808549c90016ed9fe1,NULL,length,0,NULL
42,NULL,NULL,NULL,NULL,NULL,NULL,NULL,NULL,NULL,1615,41,392111,html-button-response,1,NULL,NULL,5cb64c808549c90016ed9fe1,NULL,difficulty,0,NULL
43,NULL,NULL,NULL,NULL,NULL,NULL,NULL,NULL,NULL,1607,42,393719,html-slider-response,NULL,50,NULL,5cb64c808549c90016ed9fe1,NULL,performance,0,NULL
44,17,mediumorchid,1.9,1,1,0,3,NULL,NULL,NULL,43,412917,pong,NULL,NULL,NULL,5cb64c808549c90016ed9fe1,#3077FF,NULL,10,real-level
45,NULL,NULL,NULL,NULL,NULL,NULL,NULL,NULL,NULL,1825,44,414743,html-button-response,2,NULL,NULL,5cb64c808549c90016ed9fe1,NULL,length,0,NULL
46,NULL,NULL,NULL,NULL,NULL,NULL,NULL,NULL,NULL,1604,45,416347,html-button-response,0,NULL,NULL,5cb64c808549c90016ed9fe1,NULL,difficulty,0,NULL
47,NULL,NULL,NULL,NULL,NULL,NULL,NULL,NULL,NULL,2636,46,418983,html-slider-response,NULL,60,NULL,5cb64c808549c90016ed9fe1,NULL,performance,0,NULL
48,17,mediumorchid,1.2,1,1,1,2,NULL,NULL,NULL,47,438014,pong,NULL,NULL,NULL,5cb64c808549c90016ed9fe1,#3077FF,NULL,11,real-level
49,NULL,NULL,NULL,NULL,NULL,NULL,NULL,NULL,NULL,3925,48,441940,html-button-response,2,NULL,NULL,5cb64c808549c90016ed9fe1,NULL,length,0,NULL
50,NULL,NULL,NULL,NULL,NULL,NULL,NULL,NULL,NULL,1527,49,443467,html-button-response,1,NULL,NULL,5cb64c808549c90016ed9fe1,NULL,difficulty,0,NULL
51,NULL,NULL,NULL,NULL,NULL,NULL,NULL,NULL,NULL,3447,50,446916,html-slider-response,NULL,43,NULL,5cb64c808549c90016ed9fe1,NULL,performance,0,NULL
52,15,mediumorchid,1.9,1,0,0,2,NULL,NULL,NULL,51,464244,pong,NULL,NULL,NULL,5cb64c808549c90016ed9fe1,#3077FF,NULL,12,real-level
53,NULL,NULL,NULL,NULL,NULL,NULL,NULL,NULL,NULL,1687,52,465932,html-button-response,1,NULL,NULL,5cb64c808549c90016ed9fe1,NULL,length,0,NULL
54,NULL,NULL,NULL,NULL,NULL,NULL,NULL,NULL,NULL,815,53,466747,html-button-response,0,NULL,NULL,5cb64c808549c90016ed9fe1,NULL,difficulty,0,NULL
55,NULL,NULL,NULL,NULL,NULL,NULL,NULL,NULL,NULL,4671,54,471419,html-slider-response,NULL,51,NULL,5cb64c808549c90016ed9fe1,NULL,performance,0,NULL
56,17,mediumorchid,1.9,1,0,0,1,NULL,NULL,NULL,55,490308,pong,NULL,NULL,NULL,5cb64c808549c90016ed9fe1,#3077FF,NULL,13,real-level
57,NULL,NULL,NULL,NULL,NULL,NULL,NULL,NULL,NULL,2148,56,492456,html-button-response,1,NULL,NULL,5cb64c808549c90016ed9fe1,NULL,length,0,NULL
58,NULL,NULL,NULL,NULL,NULL,NULL,NULL,NULL,NULL,1987,57,494444,html-button-response,0,NULL,NULL,5cb64c808549c90016ed9fe1,NULL,difficulty,0,NULL
59,NULL,NULL,NULL,NULL,NULL,NULL,NULL,NULL,NULL,4903,58,499348,html-slider-response,NULL,58,NULL,5cb64c808549c90016ed9fe1,NULL,performance,0,NULL
60,13,mediumorchid,1.9,1,0,0,2,NULL,NULL,NULL,59,514371,pong,NULL,NULL,NULL,5cb64c808549c90016ed9fe1,#3077FF,NULL,14,real-level
61,NULL,NULL,NULL,NULL,NULL,NULL,NULL,NULL,NULL,2623,60,516996,html-button-response,1,NULL,NULL,5cb64c808549c90016ed9fe1,NULL,length,0,NULL
62,NULL,NULL,NULL,NULL,NULL,NULL,NULL,NULL,NULL,2587,61,519584,html-button-response,0,NULL,NULL,5cb64c808549c90016ed9fe1,NULL,difficulty,0,NULL
63,NULL,NULL,NULL,NULL,NULL,NULL,NULL,NULL,NULL,2388,62,521972,html-slider-response,NULL,50,NULL,5cb64c808549c90016ed9fe1,NULL,performance,0,NULL
64,17,mediumorchid,1.9,1,1,0,1,NULL,NULL,NULL,63,539169,pong,NULL,NULL,NULL,5cb64c808549c90016ed9fe1,#3077FF,NULL,15,real-level
65,NULL,NULL,NULL,NULL,NULL,NULL,NULL,NULL,NULL,1702,64,540872,html-button-response,1,NULL,NULL,5cb64c808549c90016ed9fe1,NULL,length,0,NULL
66,NULL,NULL,NULL,NULL,NULL,NULL,NULL,NULL,NULL,2104,65,542976,html-button-response,0,NULL,NULL,5cb64c808549c90016ed9fe1,NULL,difficulty,0,NULL
67,NULL,NULL,NULL,NULL,NULL,NULL,NULL,NULL,NULL,3028,66,546004,html-slider-response,NULL,55,NULL,5cb64c808549c90016ed9fe1,NULL,performance,0,NULL
68,13,mediumorchid,0.5,1,0,0,2,NULL,NULL,NULL,67,560865,pong,NULL,NULL,NULL,5cb64c808549c90016ed9fe1,#3077FF,NULL,16,real-level
69,NULL,NULL,NULL,NULL,NULL,NULL,NULL,NULL,NULL,1522,68,562388,html-button-response,2,NULL,NULL,5cb64c808549c90016ed9fe1,NULL,length,0,NULL
70,NULL,NULL,NULL,NULL,NULL,NULL,NULL,NULL,NULL,2143,69,564532,html-button-response,2,NULL,NULL,5cb64c808549c90016ed9fe1,NULL,difficulty,0,NULL
71,NULL,NULL,NULL,NULL,NULL,NULL,NULL,NULL,NULL,2547,70,567080,html-slider-response,NULL,60,NULL,5cb64c808549c90016ed9fe1,NULL,performance,0,NULL
72,17,mediumorchid,1.9,1,1,0,1,NULL,NULL,NULL,71,584446,pong,NULL,NULL,NULL,5cb64c808549c90016ed9fe1,#3077FF,NULL,17,real-level
73,NULL,NULL,NULL,NULL,NULL,NULL,NULL,NULL,NULL,2522,72,586968,html-button-response,1,NULL,NULL,5cb64c808549c90016ed9fe1,NULL,length,0,NULL
74,NULL,NULL,NULL,NULL,NULL,NULL,NULL,NULL,NULL,2947,73,589916,html-button-response,0,NULL,NULL,5cb64c808549c90016ed9fe1,NULL,difficulty,0,NULL
75,NULL,NULL,NULL,NULL,NULL,NULL,NULL,NULL,NULL,3195,74,593112,html-slider-response,NULL,62,NULL,5cb64c808549c90016ed9fe1,NULL,performance,0,NULL
76,15,mediumorchid,1.9,1,0,0,3,NULL,NULL,NULL,75,610410,pong,NULL,NULL,NULL,5cb64c808549c90016ed9fe1,#3077FF,NULL,18,real-level
77,NULL,NULL,NULL,NULL,NULL,NULL,NULL,NULL,NULL,2073,76,612484,html-button-response,1,NULL,NULL,5cb64c808549c90016ed9fe1,NULL,length,0,NULL
78,NULL,NULL,NULL,NULL,NULL,NULL,NULL,NULL,NULL,6147,77,618632,html-button-response,0,NULL,NULL,5cb64c808549c90016ed9fe1,NULL,difficulty,0,NULL
79,NULL,NULL,NULL,NULL,NULL,NULL,NULL,NULL,NULL,3731,78,622363,html-slider-response,NULL,58,NULL,5cb64c808549c90016ed9fe1,NULL,performance,0,NULL
80,15,mediumorchid,1.9,1,1,0,3,NULL,NULL,NULL,79,639889,pong,NULL,NULL,NULL,5cb64c808549c90016ed9fe1,#3077FF,NULL,19,real-level
81,NULL,NULL,NULL,NULL,NULL,NULL,NULL,NULL,NULL,3458,80,643347,html-button-response,1,NULL,NULL,5cb64c808549c90016ed9fe1,NULL,length,0,NULL
82,NULL,NULL,NULL,NULL,NULL,NULL,NULL,NULL,NULL,1823,81,645172,html-button-response,1,NULL,NULL,5cb64c808549c90016ed9fe1,NULL,difficulty,0,NULL
83,NULL,NULL,NULL,NULL,NULL,NULL,NULL,NULL,NULL,1939,82,647111,html-slider-response,NULL,50,NULL,5cb64c808549c90016ed9fe1,NULL,performance,0,NULL
84,17,mediumorchid,1.2,1,1,0,1,NULL,NULL,NULL,83,664435,pong,NULL,NULL,NULL,5cb64c808549c90016ed9fe1,#3077FF,NULL,20,real-level
85,NULL,NULL,NULL,NULL,NULL,NULL,NULL,NULL,NULL,2352,84,666787,html-button-response,1,NULL,NULL,5cb64c808549c90016ed9fe1,NULL,length,0,NULL
86,NULL,NULL,NULL,NULL,NULL,NULL,NULL,NULL,NULL,1611,85,668400,html-button-response,1,NULL,NULL,5cb64c808549c90016ed9fe1,NULL,difficulty,0,NULL
87,NULL,NULL,NULL,NULL,NULL,NULL,NULL,NULL,NULL,3671,86,672071,html-slider-response,NULL,59,NULL,5cb64c808549c90016ed9fe1,NULL,performance,0,NULL
88,13,mediumorchid,1.2,1,0,0,3,NULL,NULL,NULL,87,687199,pong,NULL,NULL,NULL,5cb64c808549c90016ed9fe1,#3077FF,NULL,21,real-level
89,NULL,NULL,NULL,NULL,NULL,NULL,NULL,NULL,NULL,2196,88,689395,html-button-response,1,NULL,NULL,5cb64c808549c90016ed9fe1,NULL,length,0,NULL
90,NULL,NULL,NULL,NULL,NULL,NULL,NULL,NULL,NULL,2068,89,691463,html-button-response,1,NULL,NULL,5cb64c808549c90016ed9fe1,NULL,difficulty,0,NULL
91,NULL,NULL,NULL,NULL,NULL,NULL,NULL,NULL,NULL,2643,90,694107,html-slider-response,NULL,61,NULL,5cb64c808549c90016ed9fe1,NULL,performance,0,NULL
92,15,mediumorchid,1.9,1,0,0,1,NULL,NULL,NULL,91,709329,pong,NULL,NULL,NULL,5cb64c808549c90016ed9fe1,#3077FF,NULL,22,real-level
93,NULL,NULL,NULL,NULL,NULL,NULL,NULL,NULL,NULL,5189,92,714519,html-button-response,2,NULL,NULL,5cb64c808549c90016ed9fe1,NULL,length,0,NULL
94,NULL,NULL,NULL,NULL,NULL,NULL,NULL,NULL,NULL,3048,93,717567,html-button-response,0,NULL,NULL,5cb64c808549c90016ed9fe1,NULL,difficulty,0,NULL
95,NULL,NULL,NULL,NULL,NULL,NULL,NULL,NULL,NULL,3699,94,721267,html-slider-response,NULL,59,NULL,5cb64c808549c90016ed9fe1,NULL,performance,0,NULL
96,13,mediumorchid,1.2,1,0,0,3,NULL,NULL,NULL,95,736393,pong,NULL,NULL,NULL,5cb64c808549c90016ed9fe1,#3077FF,NULL,23,real-level
97,NULL,NULL,NULL,NULL,NULL,NULL,NULL,NULL,NULL,2677,96,739071,html-button-response,1,NULL,NULL,5cb64c808549c90016ed9fe1,NULL,length,0,NULL
98,NULL,NULL,NULL,NULL,NULL,NULL,NULL,NULL,NULL,2308,97,741380,html-button-response,1,NULL,NULL,5cb64c808549c90016ed9fe1,NULL,difficulty,0,NULL
99,NULL,NULL,NULL,NULL,NULL,NULL,NULL,NULL,NULL,6747,98,748128,html-slider-response,NULL,55,NULL,5cb64c808549c90016ed9fe1,NULL,performance,0,NULL
100,13,mediumorchid,1.2,1,0,0,3,NULL,NULL,NULL,99,763123,pong,NULL,NULL,NULL,5cb64c808549c90016ed9fe1,#3077FF,NULL,24,real-level
101,NULL,NULL,NULL,NULL,NULL,NULL,NULL,NULL,NULL,2432,100,765556,html-button-response,1,NULL,NULL,5cb64c808549c90016ed9fe1,NULL,length,0,NULL
102,NULL,NULL,NULL,NULL,NULL,NULL,NULL,NULL,NULL,1579,101,767136,html-button-response,0,NULL,NULL,5cb64c808549c90016ed9fe1,NULL,difficulty,0,NULL
103,NULL,NULL,NULL,NULL,NULL,NULL,NULL,NULL,NULL,2737,102,769873,html-slider-response,NULL,50,NULL,5cb64c808549c90016ed9fe1,NULL,performance,0,NULL
104,17,mediumorchid,0.5,1,1,1,1,NULL,NULL,NULL,103,787204,pong,NULL,NULL,NULL,5cb64c808549c90016ed9fe1,#3077FF,NULL,25,real-level
105,NULL,NULL,NULL,NULL,NULL,NULL,NULL,NULL,NULL,2028,104,789233,html-button-response,2,NULL,NULL,5cb64c808549c90016ed9fe1,NULL,length,0,NULL
106,NULL,NULL,NULL,NULL,NULL,NULL,NULL,NULL,NULL,946,105,790180,html-button-response,2,NULL,NULL,5cb64c808549c90016ed9fe1,NULL,difficulty,0,NULL
107,NULL,NULL,NULL,NULL,NULL,NULL,NULL,NULL,NULL,2412,106,792592,html-slider-response,NULL,40,NULL,5cb64c808549c90016ed9fe1,NULL,performance,0,NULL
108,15,mediumorchid,0.5,1,0,1,1,NULL,NULL,NULL,107,807817,pong,NULL,NULL,NULL,5cb64c808549c90016ed9fe1,#3077FF,NULL,26,real-level
109,NULL,NULL,NULL,NULL,NULL,NULL,NULL,NULL,NULL,2958,108,810776,html-button-response,1,NULL,NULL,5cb64c808549c90016ed9fe1,NULL,length,0,NULL
110,NULL,NULL,NULL,NULL,NULL,NULL,NULL,NULL,NULL,1692,109,812468,html-button-response,2,NULL,NULL,5cb64c808549c90016ed9fe1,NULL,difficulty,0,NULL
111,NULL,NULL,NULL,NULL,NULL,NULL,NULL,NULL,NULL,21303,110,833772,html-slider-response,NULL,50,NULL,5cb64c808549c90016ed9fe1,NULL,performance,0,NULL
112,15,mediumorchid,0.5,1,0,0,3,NULL,NULL,NULL,111,848762,pong,NULL,NULL,NULL,5cb64c808549c90016ed9fe1,#3077FF,NULL,27,real-level
113,NULL,NULL,NULL,NULL,NULL,NULL,NULL,NULL,NULL,2650,112,851412,html-button-response,0,NULL,NULL,5cb64c808549c90016ed9fe1,NULL,length,0,NULL
114,NULL,NULL,NULL,NULL,NULL,NULL,NULL,NULL,NULL,1792,113,853204,html-button-response,2,NULL,NULL,5cb64c808549c90016ed9fe1,NULL,difficulty,0,NULL
115,NULL,NULL,NULL,NULL,NULL,NULL,NULL,NULL,NULL,3299,114,856504,html-slider-response,NULL,62,NULL,5cb64c808549c90016ed9fe1,NULL,performance,0,NULL
116,15,mediumorchid,0.5,1,0,0,3,NULL,NULL,NULL,115,873777,pong,NULL,NULL,NULL,5cb64c808549c90016ed9fe1,#3077FF,NULL,28,real-level
117,NULL,NULL,NULL,NULL,NULL,NULL,NULL,NULL,NULL,2511,116,876288,html-button-response,1,NULL,NULL,5cb64c808549c90016ed9fe1,NULL,length,0,NULL
118,NULL,NULL,NULL,NULL,NULL,NULL,NULL,NULL,NULL,1531,117,877820,html-button-response,2,NULL,NULL,5cb64c808549c90016ed9fe1,NULL,difficulty,0,NULL
119,NULL,NULL,NULL,NULL,NULL,NULL,NULL,NULL,NULL,2768,118,880588,html-slider-response,NULL,52,NULL,5cb64c808549c90016ed9fe1,NULL,performance,0,NULL
120,13,mediumorchid,0.5,1,0,0,3,NULL,NULL,NULL,119,895622,pong,NULL,NULL,NULL,5cb64c808549c90016ed9fe1,#3077FF,NULL,29,real-level
121,NULL,NULL,NULL,NULL,NULL,NULL,NULL,NULL,NULL,2449,120,898072,html-button-response,1,NULL,NULL,5cb64c808549c90016ed9fe1,NULL,length,0,NULL
122,NULL,NULL,NULL,NULL,NULL,NULL,NULL,NULL,NULL,1116,121,899188,html-button-response,2,NULL,NULL,5cb64c808549c90016ed9fe1,NULL,difficulty,0,NULL
123,NULL,NULL,NULL,NULL,NULL,NULL,NULL,NULL,NULL,2599,122,901788,html-slider-response,NULL,61,NULL,5cb64c808549c90016ed9fe1,NULL,performance,0,NULL
124,13,mediumorchid,0.5,1,0,0,1,NULL,NULL,NULL,123,916754,pong,NULL,NULL,NULL,5cb64c808549c90016ed9fe1,#3077FF,NULL,30,real-level
125,NULL,NULL,NULL,NULL,NULL,NULL,NULL,NULL,NULL,1366,124,918120,html-button-response,1,NULL,NULL,5cb64c808549c90016ed9fe1,NULL,length,0,NULL
126,NULL,NULL,NULL,NULL,NULL,NULL,NULL,NULL,NULL,1311,125,919432,html-button-response,2,NULL,NULL,5cb64c808549c90016ed9fe1,NULL,difficulty,0,NULL
127,NULL,NULL,NULL,NULL,NULL,NULL,NULL,NULL,NULL,3355,126,922788,html-slider-response,NULL,50,NULL,5cb64c808549c90016ed9fe1,NULL,performance,0,NULL
128,NULL,NULL,NULL,NULL,NULL,NULL,NULL,NULL,NULL,49259,127,972049,survey-text,NULL,NULL,"{"Q0":"I think the experiment was about human perception of time based on the variable of difficulty"}",5cb64c808549c90016ed9fe1,NULL,hypothesis,NULL,NULL
129,NULL,NULL,NULL,NULL,NULL,NULL,NULL,NULL,NULL,26837,0,26839,html-keyboard-response,NULL,NULL,NULL,5af170135847970001e3409a,NULL,NULL,NULL,NULL
130,13,#3077FF,1.2,1,0,0,1,1,0,NULL,1,100152,pong,NULL,NULL,NULL,5af170135847970001e3409a,mediumorchid,NULL,NULL,NULL
131,NULL,NULL,NULL,NULL,NULL,NULL,NULL,NULL,NULL,6924,2,107077,html-keyboard-response,NULL,NULL,NULL,5af170135847970001e3409a,NULL,NULL,NULL,NULL
132,13,#3077FF,0.5,1,0,1,2,NULL,1,NULL,3,124948,pong,NULL,NULL,NULL,5af170135847970001e3409a,mediumorchid,NULL,NULL,NULL
133,NULL,NULL,NULL,NULL,NULL,NULL,NULL,NULL,NULL,5147,4,130096,html-keyboard-response,NULL,NULL,NULL,5af170135847970001e3409a,NULL,NULL,NULL,NULL
134,17,#3077FF,0.5,1,0,1,2,NULL,1,NULL,5,149843,pong,NULL,NULL,NULL,5af170135847970001e3409a,mediumorchid,NULL,NULL,NULL
135,NULL,NULL,NULL,NULL,NULL,NULL,NULL,NULL,NULL,2589,6,152432,html-keyboard-response,NULL,NULL,NULL,5af170135847970001e3409a,NULL,NULL,NULL,NULL
136,13,#3077FF,0.5,1,0,0,2,NULL,NULL,NULL,7,167144,pong,NULL,NULL,NULL,5af170135847970001e3409a,mediumorchid,NULL,1,real-level
137,NULL,NULL,NULL,NULL,NULL,NULL,NULL,NULL,NULL,5525,8,172670,html-button-response,1,NULL,NULL,5af170135847970001e3409a,NULL,length,0,NULL
138,NULL,NULL,NULL,NULL,NULL,NULL,NULL,NULL,NULL,2381,9,175052,html-button-response,0,NULL,NULL,5af170135847970001e3409a,NULL,difficulty,0,NULL
139,NULL,NULL,NULL,NULL,NULL,NULL,NULL,NULL,NULL,8208,10,183260,html-slider-response,NULL,73,NULL,5af170135847970001e3409a,NULL,performance,0,NULL
140,17,#3077FF,1.2,1,1,1,2,NULL,NULL,NULL,11,200482,pong,NULL,NULL,NULL,5af170135847970001e3409a,mediumorchid,NULL,2,real-level
141,NULL,NULL,NULL,NULL,NULL,NULL,NULL,NULL,NULL,2511,12,202994,html-button-response,0,NULL,NULL,5af170135847970001e3409a,NULL,length,0,NULL
142,NULL,NULL,NULL,NULL,NULL,NULL,NULL,NULL,NULL,3611,13,206605,html-button-response,0,NULL,NULL,5af170135847970001e3409a,NULL,difficulty,0,NULL
143,NULL,NULL,NULL,NULL,NULL,NULL,NULL,NULL,NULL,5397,14,212002,html-slider-response,NULL,55,NULL,5af170135847970001e3409a,NULL,performance,0,NULL
144,17,#3077FF,1.2,1,2,0,1,NULL,NULL,NULL,15,230954,pong,NULL,NULL,NULL,5af170135847970001e3409a,mediumorchid,NULL,3,real-level
145,NULL,NULL,NULL,NULL,NULL,NULL,NULL,NULL,NULL,1860,16,232816,html-button-response,1,NULL,NULL,5af170135847970001e3409a,NULL,length,0,NULL
146,NULL,NULL,NULL,NULL,NULL,NULL,NULL,NULL,NULL,2612,17,235428,html-button-response,0,NULL,NULL,5af170135847970001e3409a,NULL,difficulty,0,NULL
147,NULL,NULL,NULL,NULL,NULL,NULL,NULL,NULL,NULL,3396,18,238825,html-slider-response,NULL,76,NULL,5af170135847970001e3409a,NULL,performance,0,NULL
148,15,#3077FF,1.2,1,2,1,3,NULL,NULL,NULL,19,256266,pong,NULL,NULL,NULL,5af170135847970001e3409a,mediumorchid,NULL,4,real-level
149,NULL,NULL,NULL,NULL,NULL,NULL,NULL,NULL,NULL,2261,20,258528,html-button-response,0,NULL,NULL,5af170135847970001e3409a,NULL,length,0,NULL
150,NULL,NULL,NULL,NULL,NULL,NULL,NULL,NULL,NULL,2011,21,260539,html-button-response,0,NULL,NULL,5af170135847970001e3409a,NULL,difficulty,0,NULL
151,NULL,NULL,NULL,NULL,NULL,NULL,NULL,NULL,NULL,3064,22,263604,html-slider-response,NULL,73,NULL,5af170135847970001e3409a,NULL,performance,0,NULL
152,15,#3077FF,1.2,1,2,0,2,NULL,NULL,NULL,23,278913,pong,NULL,NULL,NULL,5af170135847970001e3409a,mediumorchid,NULL,5,real-level
153,NULL,NULL,NULL,NULL,NULL,NULL,NULL,NULL,NULL,2011,24,280925,html-button-response,0,NULL,NULL,5af170135847970001e3409a,NULL,length,0,NULL
154,NULL,NULL,NULL,NULL,NULL,NULL,NULL,NULL,NULL,1315,25,282240,html-button-response,0,NULL,NULL,5af170135847970001e3409a,NULL,difficulty,0,NULL
155,NULL,NULL,NULL,NULL,NULL,NULL,NULL,NULL,NULL,2580,26,284822,html-slider-response,NULL,72,NULL,5af170135847970001e3409a,NULL,performance,0,NULL
156,17,#3077FF,0.5,1,0,1,3,NULL,NULL,NULL,27,301977,pong,NULL,NULL,NULL,5af170135847970001e3409a,mediumorchid,NULL,6,real-level
157,NULL,NULL,NULL,NULL,NULL,NULL,NULL,NULL,NULL,1695,28,303672,html-button-response,1,NULL,NULL,5af170135847970001e3409a,NULL,length,0,NULL
158,NULL,NULL,NULL,NULL,NULL,NULL,NULL,NULL,NULL,964,29,304636,html-button-response,1,NULL,NULL,5af170135847970001e3409a,NULL,difficulty,0,NULL
159,NULL,NULL,NULL,NULL,NULL,NULL,NULL,NULL,NULL,3198,30,307834,html-slider-response,NULL,39,NULL,5af170135847970001e3409a,NULL,performance,0,NULL
160,17,#3077FF,1.2,1,1,0,3,NULL,NULL,NULL,31,326854,pong,NULL,NULL,NULL,5af170135847970001e3409a,mediumorchid,NULL,7,real-level
161,NULL,NULL,NULL,NULL,NULL,NULL,NULL,NULL,NULL,1911,32,328767,html-button-response,0,NULL,NULL,5af170135847970001e3409a,NULL,length,0,NULL
162,NULL,NULL,NULL,NULL,NULL,NULL,NULL,NULL,NULL,1647,33,330414,html-button-response,0,NULL,NULL,5af170135847970001e3409a,NULL,difficulty,0,NULL
163,NULL,NULL,NULL,NULL,NULL,NULL,NULL,NULL,NULL,2966,34,333381,html-slider-response,NULL,85,NULL,5af170135847970001e3409a,NULL,performance,0,NULL
164,15,#3077FF,0.5,1,1,0,3,NULL,NULL,NULL,35,348468,pong,NULL,NULL,NULL,5af170135847970001e3409a,mediumorchid,NULL,8,real-level
165,NULL,NULL,NULL,NULL,NULL,NULL,NULL,NULL,NULL,1411,36,349881,html-button-response,0,NULL,NULL,5af170135847970001e3409a,NULL,length,0,NULL
166,NULL,NULL,NULL,NULL,NULL,NULL,NULL,NULL,NULL,1799,37,351681,html-button-response,1,NULL,NULL,5af170135847970001e3409a,NULL,difficulty,0,NULL
167,NULL,NULL,NULL,NULL,NULL,NULL,NULL,NULL,NULL,2729,38,354410,html-slider-response,NULL,62,NULL,5af170135847970001e3409a,NULL,performance,0,NULL
168,17,#3077FF,0.5,1,0,0,3,NULL,NULL,NULL,39,373597,pong,NULL,NULL,NULL,5af170135847970001e3409a,mediumorchid,NULL,9,real-level
169,NULL,NULL,NULL,NULL,NULL,NULL,NULL,NULL,NULL,1480,40,375077,html-button-response,0,NULL,NULL,5af170135847970001e3409a,NULL,length,0,NULL
170,NULL,NULL,NULL,NULL,NULL,NULL,NULL,NULL,NULL,1014,41,376092,html-button-response,1,NULL,NULL,5af170135847970001e3409a,NULL,difficulty,0,NULL
171,NULL,NULL,NULL,NULL,NULL,NULL,NULL,NULL,NULL,2696,42,378789,html-slider-response,NULL,73,NULL,5af170135847970001e3409a,NULL,performance,0,NULL
172,15,#3077FF,1.2,1,0,0,3,NULL,NULL,NULL,43,394012,pong,NULL,NULL,NULL,5af170135847970001e3409a,mediumorchid,NULL,10,real-level
173,NULL,NULL,NULL,NULL,NULL,NULL,NULL,NULL,NULL,1513,44,395526,html-button-response,0,NULL,NULL,5af170135847970001e3409a,NULL,length,0,NULL
174,NULL,NULL,NULL,NULL,NULL,NULL,NULL,NULL,NULL,1498,45,397024,html-button-response,0,NULL,NULL,5af170135847970001e3409a,NULL,difficulty,0,NULL
175,NULL,NULL,NULL,NULL,NULL,NULL,NULL,NULL,NULL,3229,46,400255,html-slider-response,NULL,72,NULL,5af170135847970001e3409a,NULL,performance,0,NULL
176,17,#3077FF,1.9,1,1,1,3,NULL,NULL,NULL,47,417542,pong,NULL,NULL,NULL,5af170135847970001e3409a,mediumorchid,NULL,11,real-level
177,NULL,NULL,NULL,NULL,NULL,NULL,NULL,NULL,NULL,1829,48,419372,html-button-response,0,NULL,NULL,5af170135847970001e3409a,NULL,length,0,NULL
178,NULL,NULL,NULL,NULL,NULL,NULL,NULL,NULL,NULL,963,49,420335,html-button-response,0,NULL,NULL,5af170135847970001e3409a,NULL,difficulty,0,NULL
179,NULL,NULL,NULL,NULL,NULL,NULL,NULL,NULL,NULL,3413,50,423749,html-slider-response,NULL,31,NULL,5af170135847970001e3409a,NULL,performance,0,NULL
180,17,#3077FF,0.5,1,1,1,3,NULL,NULL,NULL,51,440988,pong,NULL,NULL,NULL,5af170135847970001e3409a,mediumorchid,NULL,12,real-level
181,NULL,NULL,NULL,NULL,NULL,NULL,NULL,NULL,NULL,1746,52,442734,html-button-response,0,NULL,NULL,5af170135847970001e3409a,NULL,length,0,NULL
182,NULL,NULL,NULL,NULL,NULL,NULL,NULL,NULL,NULL,1197,53,443932,html-button-response,2,NULL,NULL,5af170135847970001e3409a,NULL,difficulty,0,NULL
183,NULL,NULL,NULL,NULL,NULL,NULL,NULL,NULL,NULL,2979,54,446911,html-slider-response,NULL,31,NULL,5af170135847970001e3409a,NULL,performance,0,NULL
184,13,#3077FF,1.2,1,1,0,3,NULL,NULL,NULL,55,465082,pong,NULL,NULL,NULL,5af170135847970001e3409a,mediumorchid,NULL,13,real-level
185,NULL,NULL,NULL,NULL,NULL,NULL,NULL,NULL,NULL,1547,56,466630,html-button-response,0,NULL,NULL,5af170135847970001e3409a,NULL,length,0,NULL
186,NULL,NULL,NULL,NULL,NULL,NULL,NULL,NULL,NULL,1163,57,467794,html-button-response,0,NULL,NULL,5af170135847970001e3409a,NULL,difficulty,0,NULL
187,NULL,NULL,NULL,NULL,NULL,NULL,NULL,NULL,NULL,2630,58,470424,html-slider-response,NULL,41,NULL,5af170135847970001e3409a,NULL,performance,0,NULL
188,17,#3077FF,0.5,1,0,1,3,NULL,NULL,NULL,59,487563,pong,NULL,NULL,NULL,5af170135847970001e3409a,mediumorchid,NULL,14,real-level
189,NULL,NULL,NULL,NULL,NULL,NULL,NULL,NULL,NULL,2060,60,489624,html-button-response,0,NULL,NULL,5af170135847970001e3409a,NULL,length,0,NULL
190,NULL,NULL,NULL,NULL,NULL,NULL,NULL,NULL,NULL,1216,61,490841,html-button-response,2,NULL,NULL,5af170135847970001e3409a,NULL,difficulty,0,NULL
191,NULL,NULL,NULL,NULL,NULL,NULL,NULL,NULL,NULL,2529,62,493371,html-slider-response,NULL,33,NULL,5af170135847970001e3409a,NULL,performance,0,NULL
192,13,#3077FF,0.5,1,0,1,3,NULL,NULL,NULL,63,510894,pong,NULL,NULL,NULL,5af170135847970001e3409a,mediumorchid,NULL,15,real-level
193,NULL,NULL,NULL,NULL,NULL,NULL,NULL,NULL,NULL,1411,64,512306,html-button-response,0,NULL,NULL,5af170135847970001e3409a,NULL,length,0,NULL
194,NULL,NULL,NULL,NULL,NULL,NULL,NULL,NULL,NULL,1283,65,513589,html-button-response,0,NULL,NULL,5af170135847970001e3409a,NULL,difficulty,0,NULL
195,NULL,NULL,NULL,NULL,NULL,NULL,NULL,NULL,NULL,2747,66,516336,html-slider-response,NULL,39,NULL,5af170135847970001e3409a,NULL,performance,0,NULL
196,17,#3077FF,1.9,1,1,0,3,NULL,NULL,NULL,67,533524,pong,NULL,NULL,NULL,5af170135847970001e3409a,mediumorchid,NULL,16,real-level
197,NULL,NULL,NULL,NULL,NULL,NULL,NULL,NULL,NULL,1862,68,535386,html-button-response,0,NULL,NULL,5af170135847970001e3409a,NULL,length,0,NULL
198,NULL,NULL,NULL,NULL,NULL,NULL,NULL,NULL,NULL,1681,69,537068,html-button-response,0,NULL,NULL,5af170135847970001e3409a,NULL,difficulty,0,NULL
199,NULL,NULL,NULL,NULL,NULL,NULL,NULL,NULL,NULL,1454,70,538523,html-slider-response,NULL,50,NULL,5af170135847970001e3409a,NULL,performance,0,NULL
200,17,#3077FF,1.9,1,1,0,3,NULL,NULL,NULL,71,557969,pong,NULL,NULL,NULL,5af170135847970001e3409a,mediumorchid,NULL,17,real-level
201,NULL,NULL,NULL,NULL,NULL,NULL,NULL,NULL,NULL,1754,72,559724,html-button-response,0,NULL,NULL,5af170135847970001e3409a,NULL,length,0,NULL
202,NULL,NULL,NULL,NULL,NULL,NULL,NULL,NULL,NULL,1039,73,560763,html-button-response,0,NULL,NULL,5af170135847970001e3409a,NULL,difficulty,0,NULL
203,NULL,NULL,NULL,NULL,NULL,NULL,NULL,NULL,NULL,2721,74,563484,html-slider-response,NULL,73,NULL,5af170135847970001e3409a,NULL,performance,0,NULL
204,13,#3077FF,1.9,1,0,0,,NULL,NULL,NULL,75,580866,pong,NULL,NULL,NULL,5af170135847970001e3409a,mediumorchid,NULL,18,real-level
205,NULL,NULL,NULL,NULL,NULL,NULL,NULL,NULL,NULL,2109,76,582976,html-button-response,0,NULL,NULL,5af170135847970001e3409a,NULL,length,0,NULL
206,NULL,NULL,NULL,NULL,NULL,NULL,NULL,NULL,NULL,1649,77,584626,html-button-response,0,NULL,NULL,5af170135847970001e3409a,NULL,difficulty,0,NULL
207,NULL,NULL,NULL,NULL,NULL,NULL,NULL,NULL,NULL,2289,78,586916,html-slider-response,NULL,62,NULL,5af170135847970001e3409a,NULL,performance,0,NULL
208,15,#3077FF,0.5,1,0,0,3,NULL,NULL,NULL,79,604262,pong,NULL,NULL,NULL,5af170135847970001e3409a,mediumorchid,NULL,19,real-level
209,NULL,NULL,NULL,NULL,NULL,NULL,NULL,NULL,NULL,1799,80,606061,html-button-response,0,NULL,NULL,5af170135847970001e3409a,NULL,length,0,NULL
210,NULL,NULL,NULL,NULL,NULL,NULL,NULL,NULL,NULL,1674,81,607737,html-button-response,0,NULL,NULL,5af170135847970001e3409a,NULL,difficulty,0,NULL
211,NULL,NULL,NULL,NULL,NULL,NULL,NULL,NULL,NULL,5565,82,613302,html-slider-response,NULL,67,NULL,5af170135847970001e3409a,NULL,performance,0,NULL
212,15,#3077FF,1.9,1,0,1,,NULL,NULL,NULL,83,628424,pong,NULL,NULL,NULL,5af170135847970001e3409a,mediumorchid,NULL,20,real-level
213,NULL,NULL,NULL,NULL,NULL,NULL,NULL,NULL,NULL,1378,84,629803,html-button-response,0,NULL,NULL,5af170135847970001e3409a,NULL,length,0,NULL
214,NULL,NULL,NULL,NULL,NULL,NULL,NULL,NULL,NULL,949,85,630753,html-button-response,1,NULL,NULL,5af170135847970001e3409a,NULL,difficulty,0,NULL
215,NULL,NULL,NULL,NULL,NULL,NULL,NULL,NULL,NULL,2437,86,633190,html-slider-response,NULL,66,NULL,5af170135847970001e3409a,NULL,performance,0,NULL
216,15,#3077FF,1.2,1,1,0,3,NULL,NULL,NULL,87,648340,pong,NULL,NULL,NULL,5af170135847970001e3409a,mediumorchid,NULL,21,real-level
217,NULL,NULL,NULL,NULL,NULL,NULL,NULL,NULL,NULL,2012,88,650353,html-button-response,0,NULL,NULL,5af170135847970001e3409a,NULL,length,0,NULL
218,NULL,NULL,NULL,NULL,NULL,NULL,NULL,NULL,NULL,5679,89,656032,html-button-response,1,NULL,NULL,5af170135847970001e3409a,NULL,difficulty,0,NULL
219,NULL,NULL,NULL,NULL,NULL,NULL,NULL,NULL,NULL,2462,90,658495,html-slider-response,NULL,34,NULL,5af170135847970001e3409a,NULL,performance,0,NULL
220,15,#3077FF,1.2,1,2,0,3,NULL,NULL,NULL,91,675982,pong,NULL,NULL,NULL,5af170135847970001e3409a,mediumorchid,NULL,22,real-level
221,NULL,NULL,NULL,NULL,NULL,NULL,NULL,NULL,NULL,1529,92,677511,html-button-response,1,NULL,NULL,5af170135847970001e3409a,NULL,length,0,NULL
222,NULL,NULL,NULL,NULL,NULL,NULL,NULL,NULL,NULL,1432,93,678944,html-button-response,0,NULL,NULL,5af170135847970001e3409a,NULL,difficulty,0,NULL
223,NULL,NULL,NULL,NULL,NULL,NULL,NULL,NULL,NULL,2496,94,681441,html-slider-response,NULL,71,NULL,5af170135847970001e3409a,NULL,performance,0,NULL
224,17,#3077FF,1.9,1,0,2,3,NULL,NULL,NULL,95,700678,pong,NULL,NULL,NULL,5af170135847970001e3409a,mediumorchid,NULL,23,real-level
225,NULL,NULL,NULL,NULL,NULL,NULL,NULL,NULL,NULL,6475,96,707154,html-button-response,1,NULL,NULL,5af170135847970001e3409a,NULL,length,0,NULL
226,NULL,NULL,NULL,NULL,NULL,NULL,NULL,NULL,NULL,17318,97,724473,html-button-response,1,NULL,NULL,5af170135847970001e3409a,NULL,difficulty,0,NULL
227,NULL,NULL,NULL,NULL,NULL,NULL,NULL,NULL,NULL,2745,98,727219,html-slider-response,NULL,42,NULL,5af170135847970001e3409a,NULL,performance,0,NULL
228,13,#3077FF,1.2,1,0,0,3,NULL,NULL,NULL,99,744406,pong,NULL,NULL,NULL,5af170135847970001e3409a,mediumorchid,NULL,24,real-level
229,NULL,NULL,NULL,NULL,NULL,NULL,NULL,NULL,NULL,1978,100,746385,html-button-response,1,NULL,NULL,5af170135847970001e3409a,NULL,length,0,NULL
230,NULL,NULL,NULL,NULL,NULL,NULL,NULL,NULL,NULL,1865,101,748250,html-button-response,0,NULL,NULL,5af170135847970001e3409a,NULL,difficulty,0,NULL
231,NULL,NULL,NULL,NULL,NULL,NULL,NULL,NULL,NULL,3295,102,751546,html-slider-response,NULL,35,NULL,5af170135847970001e3409a,NULL,performance,0,NULL
232,15,#3077FF,0.5,1,0,2,3,NULL,NULL,NULL,103,766735,pong,NULL,NULL,NULL,5af170135847970001e3409a,mediumorchid,NULL,25,real-level
233,NULL,NULL,NULL,NULL,NULL,NULL,NULL,NULL,NULL,1963,104,768699,html-button-response,0,NULL,NULL,5af170135847970001e3409a,NULL,length,0,NULL
234,NULL,NULL,NULL,NULL,NULL,NULL,NULL,NULL,NULL,962,105,769661,html-button-response,0,NULL,NULL,5af170135847970001e3409a,NULL,difficulty,0,NULL
235,NULL,NULL,NULL,NULL,NULL,NULL,NULL,NULL,NULL,2647,106,772310,html-slider-response,NULL,59,NULL,5af170135847970001e3409a,NULL,performance,0,NULL
236,17,#3077FF,1.9,1,2,1,3,NULL,NULL,NULL,107,791647,pong,NULL,NULL,NULL,5af170135847970001e3409a,mediumorchid,NULL,26,real-level
237,NULL,NULL,NULL,NULL,NULL,NULL,NULL,NULL,NULL,6390,108,798038,html-button-response,0,NULL,NULL,5af170135847970001e3409a,NULL,length,0,NULL
238,NULL,NULL,NULL,NULL,NULL,NULL,NULL,NULL,NULL,1983,109,800021,html-button-response,0,NULL,NULL,5af170135847970001e3409a,NULL,difficulty,0,NULL
239,NULL,NULL,NULL,NULL,NULL,NULL,NULL,NULL,NULL,3506,110,803528,html-slider-response,NULL,32,NULL,5af170135847970001e3409a,NULL,performance,0,NULL
240,15,#3077FF,1.9,1,0,0,3,NULL,NULL,NULL,111,820839,pong,NULL,NULL,NULL,5af170135847970001e3409a,mediumorchid,NULL,27,real-level
241,NULL,NULL,NULL,NULL,NULL,NULL,NULL,NULL,NULL,1248,112,822088,html-button-response,0,NULL,NULL,5af170135847970001e3409a,NULL,length,0,NULL
242,NULL,NULL,NULL,NULL,NULL,NULL,NULL,NULL,NULL,732,113,822820,html-button-response,0,NULL,NULL,5af170135847970001e3409a,NULL,difficulty,0,NULL
243,NULL,NULL,NULL,NULL,NULL,NULL,NULL,NULL,NULL,2760,114,825580,html-slider-response,NULL,74,NULL,5af170135847970001e3409a,NULL,performance,0,NULL
244,15,#3077FF,0.5,1,0,0,,NULL,NULL,NULL,115,840688,pong,NULL,NULL,NULL,5af170135847970001e3409a,mediumorchid,NULL,28,real-level
245,NULL,NULL,NULL,NULL,NULL,NULL,NULL,NULL,NULL,3278,116,843968,html-button-response,0,NULL,NULL,5af170135847970001e3409a,NULL,length,0,NULL
246,NULL,NULL,NULL,NULL,NULL,NULL,NULL,NULL,NULL,930,117,844899,html-button-response,2,NULL,NULL,5af170135847970001e3409a,NULL,difficulty,0,NULL
247,NULL,NULL,NULL,NULL,NULL,NULL,NULL,NULL,NULL,2097,118,846996,html-slider-response,NULL,73,NULL,5af170135847970001e3409a,NULL,performance,0,NULL
248,17,#3077FF,1.9,1,1,0,3,NULL,NULL,NULL,119,864267,pong,NULL,NULL,NULL,5af170135847970001e3409a,mediumorchid,NULL,29,real-level
249,NULL,NULL,NULL,NULL,NULL,NULL,NULL,NULL,NULL,1529,120,865797,html-button-response,1,NULL,NULL,5af170135847970001e3409a,NULL,length,0,NULL
250,NULL,NULL,NULL,NULL,NULL,NULL,NULL,NULL,NULL,2130,121,867928,html-button-response,0,NULL,NULL,5af170135847970001e3409a,NULL,difficulty,0,NULL
251,NULL,NULL,NULL,NULL,NULL,NULL,NULL,NULL,NULL,1404,122,869333,html-slider-response,NULL,50,NULL,5af170135847970001e3409a,NULL,performance,0,NULL
252,13,#3077FF,1.9,1,0,0,3,NULL,NULL,NULL,123,884350,pong,NULL,NULL,NULL,5af170135847970001e3409a,mediumorchid,NULL,30,real-level
253,NULL,NULL,NULL,NULL,NULL,NULL,NULL,NULL,NULL,1561,124,885911,html-button-response,1,NULL,NULL,5af170135847970001e3409a,NULL,length,0,NULL
254,NULL,NULL,NULL,NULL,NULL,NULL,NULL,NULL,NULL,1133,125,887044,html-button-response,0,NULL,NULL,5af170135847970001e3409a,NULL,difficulty,0,NULL
255,NULL,NULL,NULL,NULL,NULL,NULL,NULL,NULL,NULL,2366,126,889410,html-slider-response,NULL,83,NULL,5af170135847970001e3409a,NULL,performance,0,NULL
256,NULL,NULL,NULL,NULL,NULL,NULL,NULL,NULL,NULL,60377,127,949784,survey-text,NULL,NULL,"{"Q0":"All the time and speeds were the same but depending on how hard the level was peoples answers would differ."}",5af170135847970001e3409a,NULL,hypothesis,NULL,NULL
257,NULL,NULL,NULL,NULL,NULL,NULL,NULL,NULL,NULL,8441,0,8441,html-keyboard-response,NULL,NULL,NULL,5bb79d3eaec839000195e9f8,NULL,NULL,NULL,NULL
258,13,#3077FF,1.2,1,0,4,2,1,0,NULL,1,154824,pong,NULL,NULL,NULL,5bb79d3eaec839000195e9f8,mediumorchid,NULL,NULL,NULL
259,NULL,NULL,NULL,NULL,NULL,NULL,NULL,NULL,NULL,2592,2,157416,html-keyboard-response,NULL,NULL,NULL,5bb79d3eaec839000195e9f8,NULL,NULL,NULL,NULL
260,17,#3077FF,1.9,1,1,1,2,NULL,1,NULL,3,168508,pong,NULL,NULL,NULL,5bb79d3eaec839000195e9f8,mediumorchid,NULL,NULL,NULL
261,NULL,NULL,NULL,NULL,NULL,NULL,NULL,NULL,NULL,1348,4,169856,html-keyboard-response,NULL,NULL,NULL,5bb79d3eaec839000195e9f8,NULL,NULL,NULL,NULL
262,15,#3077FF,1.9,1,0,0,1,NULL,1,NULL,5,178933,pong,NULL,NULL,NULL,5bb79d3eaec839000195e9f8,mediumorchid,NULL,NULL,NULL
263,NULL,NULL,NULL,NULL,NULL,NULL,NULL,NULL,NULL,23331,6,202265,html-keyboard-response,NULL,NULL,NULL,5bb79d3eaec839000195e9f8,NULL,NULL,NULL,NULL
264,17,#3077FF,0.5,1,1,3,3,NULL,NULL,NULL,7,210818,pong,NULL,NULL,NULL,5bb79d3eaec839000195e9f8,mediumorchid,NULL,1,real-level
265,NULL,NULL,NULL,NULL,NULL,NULL,NULL,NULL,NULL,2700,8,213519,html-button-response,0,NULL,NULL,5bb79d3eaec839000195e9f8,NULL,length,0,NULL
266,NULL,NULL,NULL,NULL,NULL,NULL,NULL,NULL,NULL,2057,9,215576,html-button-response,1,NULL,NULL,5bb79d3eaec839000195e9f8,NULL,difficulty,0,NULL
267,NULL,NULL,NULL,NULL,NULL,NULL,NULL,NULL,NULL,2994,10,218571,html-slider-response,NULL,22,NULL,5bb79d3eaec839000195e9f8,NULL,performance,0,NULL
268,17,#3077FF,1.9,1,0,0,,NULL,NULL,NULL,11,227187,pong,NULL,NULL,NULL,5bb79d3eaec839000195e9f8,mediumorchid,NULL,2,real-level
269,NULL,NULL,NULL,NULL,NULL,NULL,NULL,NULL,NULL,2378,12,229565,html-button-response,0,NULL,NULL,5bb79d3eaec839000195e9f8,NULL,length,0,NULL
270,NULL,NULL,NULL,NULL,NULL,NULL,NULL,NULL,NULL,1201,13,230766,html-button-response,0,NULL,NULL,5bb79d3eaec839000195e9f8,NULL,difficulty,0,NULL
271,NULL,NULL,NULL,NULL,NULL,NULL,NULL,NULL,NULL,2326,14,233092,html-slider-response,NULL,86,NULL,5bb79d3eaec839000195e9f8,NULL,performance,0,NULL
272,15,#3077FF,1.9,1,1,0,3,NULL,NULL,NULL,15,240828,pong,NULL,NULL,NULL,5bb79d3eaec839000195e9f8,mediumorchid,NULL,3,real-level
273,NULL,NULL,NULL,NULL,NULL,NULL,NULL,NULL,NULL,1268,16,242096,html-button-response,0,NULL,NULL,5bb79d3eaec839000195e9f8,NULL,length,0,NULL
274,NULL,NULL,NULL,NULL,NULL,NULL,NULL,NULL,NULL,843,17,242939,html-button-response,1,NULL,NULL,5bb79d3eaec839000195e9f8,NULL,difficulty,0,NULL
275,NULL,NULL,NULL,NULL,NULL,NULL,NULL,NULL,NULL,24349,18,267288,html-slider-response,NULL,68,NULL,5bb79d3eaec839000195e9f8,NULL,performance,0,NULL
276,17,#3077FF,1.9,1,1,0,1,NULL,NULL,NULL,19,276787,pong,NULL,NULL,NULL,5bb79d3eaec839000195e9f8,mediumorchid,NULL,4,real-level
277,NULL,NULL,NULL,NULL,NULL,NULL,NULL,NULL,NULL,1495,20,278283,html-button-response,0,NULL,NULL,5bb79d3eaec839000195e9f8,NULL,length,0,NULL
278,NULL,NULL,NULL,NULL,NULL,NULL,NULL,NULL,NULL,1691,21,279974,html-button-response,1,NULL,NULL,5bb79d3eaec839000195e9f8,NULL,difficulty,0,NULL
279,NULL,NULL,NULL,NULL,NULL,NULL,NULL,NULL,NULL,1566,22,281540,html-slider-response,NULL,32,NULL,5bb79d3eaec839000195e9f8,NULL,performance,0,NULL
280,15,#3077FF,0.5,1,1,0,2,NULL,NULL,NULL,23,290371,pong,NULL,NULL,NULL,5bb79d3eaec839000195e9f8,mediumorchid,NULL,5,real-level
281,NULL,NULL,NULL,NULL,NULL,NULL,NULL,NULL,NULL,919,24,291290,html-button-response,0,NULL,NULL,5bb79d3eaec839000195e9f8,NULL,length,0,NULL
282,NULL,NULL,NULL,NULL,NULL,NULL,NULL,NULL,NULL,2079,25,293369,html-button-response,1,NULL,NULL,5bb79d3eaec839000195e9f8,NULL,difficulty,0,NULL
283,NULL,NULL,NULL,NULL,NULL,NULL,NULL,NULL,NULL,23698,26,317067,html-slider-response,NULL,65,NULL,5bb79d3eaec839000195e9f8,NULL,performance,0,NULL
284,17,#3077FF,0.5,1,0,2,2,NULL,NULL,NULL,27,325731,pong,NULL,NULL,NULL,5bb79d3eaec839000195e9f8,mediumorchid,NULL,6,real-level
285,NULL,NULL,NULL,NULL,NULL,NULL,NULL,NULL,NULL,937,28,326668,html-button-response,0,NULL,NULL,5bb79d3eaec839000195e9f8,NULL,length,0,NULL
286,NULL,NULL,NULL,NULL,NULL,NULL,NULL,NULL,NULL,997,29,327665,html-button-response,2,NULL,NULL,5bb79d3eaec839000195e9f8,NULL,difficulty,0,NULL
287,NULL,NULL,NULL,NULL,NULL,NULL,NULL,NULL,NULL,1702,30,329367,html-slider-response,NULL,24,NULL,5bb79d3eaec839000195e9f8,NULL,performance,0,NULL
288,15,#3077FF,1.2,1,0,1,,NULL,NULL,NULL,31,336882,pong,NULL,NULL,NULL,5bb79d3eaec839000195e9f8,mediumorchid,NULL,7,real-level
289,NULL,NULL,NULL,NULL,NULL,NULL,NULL,NULL,NULL,999,32,337881,html-button-response,0,NULL,NULL,5bb79d3eaec839000195e9f8,NULL,length,0,NULL
290,NULL,NULL,NULL,NULL,NULL,NULL,NULL,NULL,NULL,852,33,338733,html-button-response,1,NULL,NULL,5bb79d3eaec839000195e9f8,NULL,difficulty,0,NULL
291,NULL,NULL,NULL,NULL,NULL,NULL,NULL,NULL,NULL,1275,34,340008,html-slider-response,NULL,50,NULL,5bb79d3eaec839000195e9f8,NULL,performance,0,NULL
292,15,#3077FF,0.5,1,2,0,1,NULL,NULL,NULL,35,348674,pong,NULL,NULL,NULL,5bb79d3eaec839000195e9f8,mediumorchid,NULL,8,real-level
293,NULL,NULL,NULL,NULL,NULL,NULL,NULL,NULL,NULL,1065,36,349739,html-button-response,0,NULL,NULL,5bb79d3eaec839000195e9f8,NULL,length,0,NULL
294,NULL,NULL,NULL,NULL,NULL,NULL,NULL,NULL,NULL,1155,37,350894,html-button-response,1,NULL,NULL,5bb79d3eaec839000195e9f8,NULL,difficulty,0,NULL
295,NULL,NULL,NULL,NULL,NULL,NULL,NULL,NULL,NULL,2148,38,353042,html-slider-response,NULL,67,NULL,5bb79d3eaec839000195e9f8,NULL,performance,0,NULL
296,13,#3077FF,1.2,1,0,0,3,NULL,NULL,NULL,39,360508,pong,NULL,NULL,NULL,5bb79d3eaec839000195e9f8,mediumorchid,NULL,9,real-level
297,NULL,NULL,NULL,NULL,NULL,NULL,NULL,NULL,NULL,776,40,361284,html-button-response,0,NULL,NULL,5bb79d3eaec839000195e9f8,NULL,length,0,NULL
298,NULL,NULL,NULL,NULL,NULL,NULL,NULL,NULL,NULL,889,41,362173,html-button-response,1,NULL,NULL,5bb79d3eaec839000195e9f8,NULL,difficulty,0,NULL
299,NULL,NULL,NULL,NULL,NULL,NULL,NULL,NULL,NULL,1671,42,363844,html-slider-response,NULL,63,NULL,5bb79d3eaec839000195e9f8,NULL,performance,0,NULL
300,15,#3077FF,0.5,1,0,1,1,NULL,NULL,NULL,43,371424,pong,NULL,NULL,NULL,5bb79d3eaec839000195e9f8,mediumorchid,NULL,10,real-level
301,NULL,NULL,NULL,NULL,NULL,NULL,NULL,NULL,NULL,798,44,372222,html-button-response,0,NULL,NULL,5bb79d3eaec839000195e9f8,NULL,length,0,NULL
302,NULL,NULL,NULL,NULL,NULL,NULL,NULL,NULL,NULL,1095,45,373317,html-button-response,1,NULL,NULL,5bb79d3eaec839000195e9f8,NULL,difficulty,0,NULL
303,NULL,NULL,NULL,NULL,NULL,NULL,NULL,NULL,NULL,29794,46,403111,html-slider-response,NULL,66,NULL,5bb79d3eaec839000195e9f8,NULL,performance,0,NULL
304,17,#3077FF,1.2,1,1,0,1,NULL,NULL,NULL,47,411709,pong,NULL,NULL,NULL,5bb79d3eaec839000195e9f8,mediumorchid,NULL,11,real-level
305,NULL,NULL,NULL,NULL,NULL,NULL,NULL,NULL,NULL,1113,48,412822,html-button-response,0,NULL,NULL,5bb79d3eaec839000195e9f8,NULL,length,0,NULL
306,NULL,NULL,NULL,NULL,NULL,NULL,NULL,NULL,NULL,473,49,413295,html-button-response,2,NULL,NULL,5bb79d3eaec839000195e9f8,NULL,difficulty,0,NULL
307,NULL,NULL,NULL,NULL,NULL,NULL,NULL,NULL,NULL,2276,50,415571,html-slider-response,NULL,42,NULL,5bb79d3eaec839000195e9f8,NULL,performance,0,NULL
308,13,#3077FF,1.9,1,0,0,1,NULL,NULL,NULL,51,424185,pong,NULL,NULL,NULL,5bb79d3eaec839000195e9f8,mediumorchid,NULL,12,real-level
309,NULL,NULL,NULL,NULL,NULL,NULL,NULL,NULL,NULL,1114,52,425300,html-button-response,0,NULL,NULL,5bb79d3eaec839000195e9f8,NULL,length,0,NULL
310,NULL,NULL,NULL,NULL,NULL,NULL,NULL,NULL,NULL,377,53,425677,html-button-response,0,NULL,NULL,5bb79d3eaec839000195e9f8,NULL,difficulty,0,NULL
311,NULL,NULL,NULL,NULL,NULL,NULL,NULL,NULL,NULL,1974,54,427651,html-slider-response,NULL,79,NULL,5bb79d3eaec839000195e9f8,NULL,performance,0,NULL
312,17,#3077FF,1.9,1,1,0,3,NULL,NULL,NULL,55,437202,pong,NULL,NULL,NULL,5bb79d3eaec839000195e9f8,mediumorchid,NULL,13,real-level
313,NULL,NULL,NULL,NULL,NULL,NULL,NULL,NULL,NULL,793,56,437995,html-button-response,0,NULL,NULL,5bb79d3eaec839000195e9f8,NULL,length,0,NULL
314,NULL,NULL,NULL,NULL,NULL,NULL,NULL,NULL,NULL,846,57,438841,html-button-response,1,NULL,NULL,5bb79d3eaec839000195e9f8,NULL,difficulty,0,NULL
315,NULL,NULL,NULL,NULL,NULL,NULL,NULL,NULL,NULL,8621,58,447462,html-slider-response,NULL,43,NULL,5bb79d3eaec839000195e9f8,NULL,performance,0,NULL
316,17,#3077FF,1.2,1,0,0,3,NULL,NULL,NULL,59,456895,pong,NULL,NULL,NULL,5bb79d3eaec839000195e9f8,mediumorchid,NULL,14,real-level
317,NULL,NULL,NULL,NULL,NULL,NULL,NULL,NULL,NULL,1335,60,458230,html-button-response,0,NULL,NULL,5bb79d3eaec839000195e9f8,NULL,length,0,NULL
318,NULL,NULL,NULL,NULL,NULL,NULL,NULL,NULL,NULL,995,61,459225,html-button-response,1,NULL,NULL,5bb79d3eaec839000195e9f8,NULL,difficulty,0,NULL
319,NULL,NULL,NULL,NULL,NULL,NULL,NULL,NULL,NULL,1862,62,461087,html-slider-response,NULL,65,NULL,5bb79d3eaec839000195e9f8,NULL,performance,0,NULL
320,13,#3077FF,1.9,1,0,0,3,NULL,NULL,NULL,63,468537,pong,NULL,NULL,NULL,5bb79d3eaec839000195e9f8,mediumorchid,NULL,15,real-level
321,NULL,NULL,NULL,NULL,NULL,NULL,NULL,NULL,NULL,1600,64,470137,html-button-response,0,NULL,NULL,5bb79d3eaec839000195e9f8,NULL,length,0,NULL
322,NULL,NULL,NULL,NULL,NULL,NULL,NULL,NULL,NULL,1038,65,471175,html-button-response,1,NULL,NULL,5bb79d3eaec839000195e9f8,NULL,difficulty,0,NULL
323,NULL,NULL,NULL,NULL,NULL,NULL,NULL,NULL,NULL,26655,66,497830,html-slider-response,NULL,86,NULL,5bb79d3eaec839000195e9f8,NULL,performance,0,NULL
324,17,#3077FF,0.5,1,1,0,1,NULL,NULL,NULL,67,507431,pong,NULL,NULL,NULL,5bb79d3eaec839000195e9f8,mediumorchid,NULL,16,real-level
325,NULL,NULL,NULL,NULL,NULL,NULL,NULL,NULL,NULL,1158,68,508589,html-button-response,0,NULL,NULL,5bb79d3eaec839000195e9f8,NULL,length,0,NULL
326,NULL,NULL,NULL,NULL,NULL,NULL,NULL,NULL,NULL,371,69,508960,html-button-response,2,NULL,NULL,5bb79d3eaec839000195e9f8,NULL,difficulty,0,NULL
327,NULL,NULL,NULL,NULL,NULL,NULL,NULL,NULL,NULL,23116,70,532076,html-slider-response,NULL,34,NULL,5bb79d3eaec839000195e9f8,NULL,performance,0,NULL
328,17,#3077FF,1.9,1,0,0,3,NULL,NULL,NULL,71,541490,pong,NULL,NULL,NULL,5bb79d3eaec839000195e9f8,mediumorchid,NULL,17,real-level
329,NULL,NULL,NULL,NULL,NULL,NULL,NULL,NULL,NULL,1026,72,542516,html-button-response,0,NULL,NULL,5bb79d3eaec839000195e9f8,NULL,length,0,NULL
330,NULL,NULL,NULL,NULL,NULL,NULL,NULL,NULL,NULL,1409,73,543925,html-button-response,1,NULL,NULL,5bb79d3eaec839000195e9f8,NULL,difficulty,0,NULL
331,NULL,NULL,NULL,NULL,NULL,NULL,NULL,NULL,NULL,12262,74,556187,html-slider-response,NULL,69,NULL,5bb79d3eaec839000195e9f8,NULL,performance,0,NULL
332,15,#3077FF,0.5,1,0,0,3,NULL,NULL,NULL,75,564882,pong,NULL,NULL,NULL,5bb79d3eaec839000195e9f8,mediumorchid,NULL,18,real-level
333,NULL,NULL,NULL,NULL,NULL,NULL,NULL,NULL,NULL,985,76,565868,html-button-response,0,NULL,NULL,5bb79d3eaec839000195e9f8,NULL,length,0,NULL
334,NULL,NULL,NULL,NULL,NULL,NULL,NULL,NULL,NULL,1557,77,567425,html-button-response,1,NULL,NULL,5bb79d3eaec839000195e9f8,NULL,difficulty,0,NULL
335,NULL,NULL,NULL,NULL,NULL,NULL,NULL,NULL,NULL,12155,78,579580,html-slider-response,NULL,69,NULL,5bb79d3eaec839000195e9f8,NULL,performance,0,NULL
336,17,#3077FF,0.5,1,1,1,3,NULL,NULL,NULL,79,589141,pong,NULL,NULL,NULL,5bb79d3eaec839000195e9f8,mediumorchid,NULL,19,real-level
337,NULL,NULL,NULL,NULL,NULL,NULL,NULL,NULL,NULL,915,80,590056,html-button-response,0,NULL,NULL,5bb79d3eaec839000195e9f8,NULL,length,0,NULL
338,NULL,NULL,NULL,NULL,NULL,NULL,NULL,NULL,NULL,3344,81,593400,html-button-response,2,NULL,NULL,5bb79d3eaec839000195e9f8,NULL,difficulty,0,NULL
339,NULL,NULL,NULL,NULL,NULL,NULL,NULL,NULL,NULL,1399,82,594799,html-slider-response,NULL,56,NULL,5bb79d3eaec839000195e9f8,NULL,performance,0,NULL
340,13,#3077FF,1.9,1,0,0,3,NULL,NULL,NULL,83,602367,pong,NULL,NULL,NULL,5bb79d3eaec839000195e9f8,mediumorchid,NULL,20,real-level
341,NULL,NULL,NULL,NULL,NULL,NULL,NULL,NULL,NULL,790,84,603157,html-button-response,0,NULL,NULL,5bb79d3eaec839000195e9f8,NULL,length,0,NULL
342,NULL,NULL,NULL,NULL,NULL,NULL,NULL,NULL,NULL,1151,85,604308,html-button-response,0,NULL,NULL,5bb79d3eaec839000195e9f8,NULL,difficulty,0,NULL
343,NULL,NULL,NULL,NULL,NULL,NULL,NULL,NULL,NULL,1784,86,606092,html-slider-response,NULL,78,NULL,5bb79d3eaec839000195e9f8,NULL,performance,0,NULL
344,13,#3077FF,1.2,1,1,0,3,NULL,NULL,NULL,87,613692,pong,NULL,NULL,NULL,5bb79d3eaec839000195e9f8,mediumorchid,NULL,21,real-level
345,NULL,NULL,NULL,NULL,NULL,NULL,NULL,NULL,NULL,774,88,614466,html-button-response,0,NULL,NULL,5bb79d3eaec839000195e9f8,NULL,length,0,NULL
346,NULL,NULL,NULL,NULL,NULL,NULL,NULL,NULL,NULL,1142,89,615608,html-button-response,0,NULL,NULL,5bb79d3eaec839000195e9f8,NULL,difficulty,0,NULL
347,NULL,NULL,NULL,NULL,NULL,NULL,NULL,NULL,NULL,1730,90,617338,html-slider-response,NULL,84,NULL,5bb79d3eaec839000195e9f8,NULL,performance,0,NULL
348,17,#3077FF,0.5,1,2,3,3,NULL,NULL,NULL,91,626018,pong,NULL,NULL,NULL,5bb79d3eaec839000195e9f8,mediumorchid,NULL,22,real-level
349,NULL,NULL,NULL,NULL,NULL,NULL,NULL,NULL,NULL,840,92,626858,html-button-response,0,NULL,NULL,5bb79d3eaec839000195e9f8,NULL,length,0,NULL
350,NULL,NULL,NULL,NULL,NULL,NULL,NULL,NULL,NULL,82590,93,709448,html-button-response,1,NULL,NULL,5bb79d3eaec839000195e9f8,NULL,difficulty,0,NULL
351,NULL,NULL,NULL,NULL,NULL,NULL,NULL,NULL,NULL,1228,94,710676,html-slider-response,NULL,59,NULL,5bb79d3eaec839000195e9f8,NULL,performance,0,NULL
352,13,#3077FF,1.9,1,0,0,3,NULL,NULL,NULL,95,718138,pong,NULL,NULL,NULL,5bb79d3eaec839000195e9f8,mediumorchid,NULL,23,real-level
353,NULL,NULL,NULL,NULL,NULL,NULL,NULL,NULL,NULL,820,96,718958,html-button-response,0,NULL,NULL,5bb79d3eaec839000195e9f8,NULL,length,0,NULL
354,NULL,NULL,NULL,NULL,NULL,NULL,NULL,NULL,NULL,1446,97,720404,html-button-response,0,NULL,NULL,5bb79d3eaec839000195e9f8,NULL,difficulty,0,NULL
355,NULL,NULL,NULL,NULL,NULL,NULL,NULL,NULL,NULL,49011,98,769415,html-slider-response,NULL,62,NULL,5bb79d3eaec839000195e9f8,NULL,performance,0,NULL
356,13,#3077FF,1.9,1,1,2,3,NULL,NULL,NULL,99,777099,pong,NULL,NULL,NULL,5bb79d3eaec839000195e9f8,mediumorchid,NULL,24,real-level
357,NULL,NULL,NULL,NULL,NULL,NULL,NULL,NULL,NULL,803,100,777902,html-button-response,0,NULL,NULL,5bb79d3eaec839000195e9f8,NULL,length,0,NULL
358,NULL,NULL,NULL,NULL,NULL,NULL,NULL,NULL,NULL,1231,101,779133,html-button-response,0,NULL,NULL,5bb79d3eaec839000195e9f8,NULL,difficulty,0,NULL
359,NULL,NULL,NULL,NULL,NULL,NULL,NULL,NULL,NULL,1070,102,780203,html-slider-response,NULL,58,NULL,5bb79d3eaec839000195e9f8,NULL,performance,0,NULL
360,13,#3077FF,0.5,1,0,1,3,NULL,NULL,NULL,103,787682,pong,NULL,NULL,NULL,5bb79d3eaec839000195e9f8,mediumorchid,NULL,25,real-level
361,NULL,NULL,NULL,NULL,NULL,NULL,NULL,NULL,NULL,803,104,788486,html-button-response,0,NULL,NULL,5bb79d3eaec839000195e9f8,NULL,length,0,NULL
362,NULL,NULL,NULL,NULL,NULL,NULL,NULL,NULL,NULL,862,105,789348,html-button-response,2,NULL,NULL,5bb79d3eaec839000195e9f8,NULL,difficulty,0,NULL
363,NULL,NULL,NULL,NULL,NULL,NULL,NULL,NULL,NULL,1152,106,790500,html-slider-response,NULL,38,NULL,5bb79d3eaec839000195e9f8,NULL,performance,0,NULL
364,17,#3077FF,1.2,1,2,1,3,NULL,NULL,NULL,107,799216,pong,NULL,NULL,NULL,5bb79d3eaec839000195e9f8,mediumorchid,NULL,26,real-level
365,NULL,NULL,NULL,NULL,NULL,NULL,NULL,NULL,NULL,1084,108,800300,html-button-response,0,NULL,NULL,5bb79d3eaec839000195e9f8,NULL,length,0,NULL
366,NULL,NULL,NULL,NULL,NULL,NULL,NULL,NULL,NULL,572,109,800872,html-button-response,2,NULL,NULL,5bb79d3eaec839000195e9f8,NULL,difficulty,0,NULL
367,NULL,NULL,NULL,NULL,NULL,NULL,NULL,NULL,NULL,1629,110,802501,html-slider-response,NULL,61,NULL,5bb79d3eaec839000195e9f8,NULL,performance,0,NULL
368,17,#3077FF,1.2,1,0,0,1,NULL,NULL,NULL,111,811116,pong,NULL,NULL,NULL,5bb79d3eaec839000195e9f8,mediumorchid,NULL,27,real-level
369,NULL,NULL,NULL,NULL,NULL,NULL,NULL,NULL,NULL,760,112,811876,html-button-response,0,NULL,NULL,5bb79d3eaec839000195e9f8,NULL,length,0,NULL
370,NULL,NULL,NULL,NULL,NULL,NULL,NULL,NULL,NULL,874,113,812750,html-button-response,2,NULL,NULL,5bb79d3eaec839000195e9f8,NULL,difficulty,0,NULL
371,NULL,NULL,NULL,NULL,NULL,NULL,NULL,NULL,NULL,47349,114,860099,html-slider-response,NULL,69,NULL,5bb79d3eaec839000195e9f8,NULL,performance,0,NULL
372,15,#3077FF,1.2,1,0,0,1,NULL,NULL,NULL,115,867694,pong,NULL,NULL,NULL,5bb79d3eaec839000195e9f8,mediumorchid,NULL,28,real-level
373,NULL,NULL,NULL,NULL,NULL,NULL,NULL,NULL,NULL,748,116,868442,html-button-response,0,NULL,NULL,5bb79d3eaec839000195e9f8,NULL,length,0,NULL
374,NULL,NULL,NULL,NULL,NULL,NULL,NULL,NULL,NULL,784,117,869226,html-button-response,1,NULL,NULL,5bb79d3eaec839000195e9f8,NULL,difficulty,0,NULL
375,NULL,NULL,NULL,NULL,NULL,NULL,NULL,NULL,NULL,1326,118,870552,html-slider-response,NULL,54,NULL,5bb79d3eaec839000195e9f8,NULL,performance,0,NULL
376,15,#3077FF,1.2,1,1,1,3,NULL,NULL,NULL,119,878153,pong,NULL,NULL,NULL,5bb79d3eaec839000195e9f8,mediumorchid,NULL,29,real-level
377,NULL,NULL,NULL,NULL,NULL,NULL,NULL,NULL,NULL,753,120,878906,html-button-response,0,NULL,NULL,5bb79d3eaec839000195e9f8,NULL,length,0,NULL
378,NULL,NULL,NULL,NULL,NULL,NULL,NULL,NULL,NULL,910,121,879816,html-button-response,1,NULL,NULL,5bb79d3eaec839000195e9f8,NULL,difficulty,0,NULL
379,NULL,NULL,NULL,NULL,NULL,NULL,NULL,NULL,NULL,2794,122,882610,html-slider-response,NULL,43,NULL,5bb79d3eaec839000195e9f8,NULL,performance,0,NULL
380,13,#3077FF,1.2,1,0,0,3,NULL,NULL,NULL,123,891328,pong,NULL,NULL,NULL,5bb79d3eaec839000195e9f8,mediumorchid,NULL,30,real-level
381,NULL,NULL,NULL,NULL,NULL,NULL,NULL,NULL,NULL,730,124,892058,html-button-response,0,NULL,NULL,5bb79d3eaec839000195e9f8,NULL,length,0,NULL
382,NULL,NULL,NULL,NULL,NULL,NULL,NULL,NULL,NULL,690,125,892748,html-button-response,1,NULL,NULL,5bb79d3eaec839000195e9f8,NULL,difficulty,0,NULL
383,NULL,NULL,NULL,NULL,NULL,NULL,NULL,NULL,NULL,1312,126,894060,html-slider-response,NULL,56,NULL,5bb79d3eaec839000195e9f8,NULL,performance,0,NULL
384,NULL,NULL,NULL,NULL,NULL,NULL,NULL,NULL,NULL,22303,127,916364,survey-text,NULL,NULL,"{"Q0":"I have no idea, maybe precision of estimates VS pong skills?"}",5bb79d3eaec839000195e9f8,NULL,hypothesis,NULL,NULL
385,NULL,NULL,NULL,NULL,NULL,NULL,NULL,NULL,NULL,13687,0,13689,html-keyboard-response,NULL,NULL,NULL,5a5a59afacc75b00017a4ee0,NULL,NULL,NULL,NULL
386,13,#3077FF,1.2,1,1,0,1,1,0,NULL,1,86371,pong,NULL,NULL,NULL,5a5a59afacc75b00017a4ee0,mediumorchid,NULL,NULL,NULL
387,NULL,NULL,NULL,NULL,NULL,NULL,NULL,NULL,NULL,6435,2,92807,html-keyboard-response,NULL,NULL,NULL,5a5a59afacc75b00017a4ee0,NULL,NULL,NULL,NULL
388,17,#3077FF,1.2,1,0,0,2,NULL,1,NULL,3,114589,pong,NULL,NULL,NULL,5a5a59afacc75b00017a4ee0,mediumorchid,NULL,NULL,NULL
389,NULL,NULL,NULL,NULL,NULL,NULL,NULL,NULL,NULL,3290,4,117879,html-keyboard-response,NULL,NULL,NULL,5a5a59afacc75b00017a4ee0,NULL,NULL,NULL,NULL
390,17,#3077FF,1.2,1,0,0,2,NULL,1,NULL,5,138807,pong,NULL,NULL,NULL,5a5a59afacc75b00017a4ee0,mediumorchid,NULL,NULL,NULL
391,NULL,NULL,NULL,NULL,NULL,NULL,NULL,NULL,NULL,1800,6,140607,html-keyboard-response,NULL,NULL,NULL,5a5a59afacc75b00017a4ee0,NULL,NULL,NULL,NULL
392,17,#3077FF,0.5,1,1,1,1,NULL,NULL,NULL,7,157872,pong,NULL,NULL,NULL,5a5a59afacc75b00017a4ee0,mediumorchid,NULL,1,real-level
393,NULL,NULL,NULL,NULL,NULL,NULL,NULL,NULL,NULL,3936,8,161810,html-button-response,0,NULL,NULL,5a5a59afacc75b00017a4ee0,NULL,length,0,NULL
394,NULL,NULL,NULL,NULL,NULL,NULL,NULL,NULL,NULL,2355,9,164166,html-button-response,0,NULL,NULL,5a5a59afacc75b00017a4ee0,NULL,difficulty,0,NULL
395,NULL,NULL,NULL,NULL,NULL,NULL,NULL,NULL,NULL,4725,10,168892,html-slider-response,NULL,29,NULL,5a5a59afacc75b00017a4ee0,NULL,performance,0,NULL
396,13,#3077FF,1.2,1,1,0,3,NULL,NULL,NULL,11,184024,pong,NULL,NULL,NULL,5a5a59afacc75b00017a4ee0,mediumorchid,NULL,2,real-level
397,NULL,NULL,NULL,NULL,NULL,NULL,NULL,NULL,NULL,2096,12,186121,html-button-response,1,NULL,NULL,5a5a59afacc75b00017a4ee0,NULL,length,0,NULL
398,NULL,NULL,NULL,NULL,NULL,NULL,NULL,NULL,NULL,1181,13,187303,html-button-response,0,NULL,NULL,5a5a59afacc75b00017a4ee0,NULL,difficulty,0,NULL
399,NULL,NULL,NULL,NULL,NULL,NULL,NULL,NULL,NULL,2263,14,189568,html-slider-response,NULL,77,NULL,5a5a59afacc75b00017a4ee0,NULL,performance,0,NULL
400,13,#3077FF,0.5,1,1,0,2,NULL,NULL,NULL,15,204758,pong,NULL,NULL,NULL,5a5a59afacc75b00017a4ee0,mediumorchid,NULL,3,real-level
401,NULL,NULL,NULL,NULL,NULL,NULL,NULL,NULL,NULL,1742,16,206501,html-button-response,1,NULL,NULL,5a5a59afacc75b00017a4ee0,NULL,length,0,NULL
402,NULL,NULL,NULL,NULL,NULL,NULL,NULL,NULL,NULL,1652,17,208153,html-button-response,1,NULL,NULL,5a5a59afacc75b00017a4ee0,NULL,difficulty,0,NULL
403,NULL,NULL,NULL,NULL,NULL,NULL,NULL,NULL,NULL,2417,18,210571,html-slider-response,NULL,75,NULL,5a5a59afacc75b00017a4ee0,NULL,performance,0,NULL
404,15,#3077FF,1.2,1,0,0,1,NULL,NULL,NULL,19,227742,pong,NULL,NULL,NULL,5a5a59afacc75b00017a4ee0,mediumorchid,NULL,4,real-level
405,NULL,NULL,NULL,NULL,NULL,NULL,NULL,NULL,NULL,2091,20,229833,html-button-response,2,NULL,NULL,5a5a59afacc75b00017a4ee0,NULL,length,0,NULL
406,NULL,NULL,NULL,NULL,NULL,NULL,NULL,NULL,NULL,2007,21,231841,html-button-response,1,NULL,NULL,5a5a59afacc75b00017a4ee0,NULL,difficulty,0,NULL
407,NULL,NULL,NULL,NULL,NULL,NULL,NULL,NULL,NULL,2388,22,234229,html-slider-response,NULL,33,NULL,5a5a59afacc75b00017a4ee0,NULL,performance,0,NULL
408,17,#3077FF,1.9,1,1,0,1,NULL,NULL,NULL,23,253260,pong,NULL,NULL,NULL,5a5a59afacc75b00017a4ee0,mediumorchid,NULL,5,real-level
409,NULL,NULL,NULL,NULL,NULL,NULL,NULL,NULL,NULL,1356,24,254617,html-button-response,2,NULL,NULL,5a5a59afacc75b00017a4ee0,NULL,length,0,NULL
410,NULL,NULL,NULL,NULL,NULL,NULL,NULL,NULL,NULL,1211,25,255829,html-button-response,0,NULL,NULL,5a5a59afacc75b00017a4ee0,NULL,difficulty,0,NULL
411,NULL,NULL,NULL,NULL,NULL,NULL,NULL,NULL,NULL,1521,26,257351,html-slider-response,NULL,73,NULL,5a5a59afacc75b00017a4ee0,NULL,performance,0,NULL
412,15,#3077FF,1.2,1,0,0,2,NULL,NULL,NULL,27,274343,pong,NULL,NULL,NULL,5a5a59afacc75b00017a4ee0,mediumorchid,NULL,6,real-level
413,NULL,NULL,NULL,NULL,NULL,NULL,NULL,NULL,NULL,1386,28,275731,html-button-response,1,NULL,NULL,5a5a59afacc75b00017a4ee0,NULL,length,0,NULL
414,NULL,NULL,NULL,NULL,NULL,NULL,NULL,NULL,NULL,795,29,276527,html-button-response,0,NULL,NULL,5a5a59afacc75b00017a4ee0,NULL,difficulty,0,NULL
415,NULL,NULL,NULL,NULL,NULL,NULL,NULL,NULL,NULL,2031,30,278559,html-slider-response,NULL,90,NULL,5a5a59afacc75b00017a4ee0,NULL,performance,0,NULL
416,15,#3077FF,1.2,1,0,0,2,NULL,NULL,NULL,31,295594,pong,NULL,NULL,NULL,5a5a59afacc75b00017a4ee0,mediumorchid,NULL,7,real-level
417,NULL,NULL,NULL,NULL,NULL,NULL,NULL,NULL,NULL,1122,32,296717,html-button-response,2,NULL,NULL,5a5a59afacc75b00017a4ee0,NULL,length,0,NULL
418,NULL,NULL,NULL,NULL,NULL,NULL,NULL,NULL,NULL,1381,33,298099,html-button-response,1,NULL,NULL,5a5a59afacc75b00017a4ee0,NULL,difficulty,0,NULL
419,NULL,NULL,NULL,NULL,NULL,NULL,NULL,NULL,NULL,1505,34,299605,html-slider-response,NULL,95,NULL,5a5a59afacc75b00017a4ee0,NULL,performance,0,NULL
420,13,#3077FF,1.2,1,0,0,3,NULL,NULL,NULL,35,317230,pong,NULL,NULL,NULL,5a5a59afacc75b00017a4ee0,mediumorchid,NULL,8,real-level
421,NULL,NULL,NULL,NULL,NULL,NULL,NULL,NULL,NULL,1256,36,318488,html-button-response,1,NULL,NULL,5a5a59afacc75b00017a4ee0,NULL,length,0,NULL
422,NULL,NULL,NULL,NULL,NULL,NULL,NULL,NULL,NULL,771,37,319260,html-button-response,1,NULL,NULL,5a5a59afacc75b00017a4ee0,NULL,difficulty,0,NULL
423,NULL,NULL,NULL,NULL,NULL,NULL,NULL,NULL,NULL,1932,38,321192,html-slider-response,NULL,83,NULL,5a5a59afacc75b00017a4ee0,NULL,performance,0,NULL
424,17,#3077FF,1.9,1,2,0,2,NULL,NULL,NULL,39,340646,pong,NULL,NULL,NULL,5a5a59afacc75b00017a4ee0,mediumorchid,NULL,9,real-level
425,NULL,NULL,NULL,NULL,NULL,NULL,NULL,NULL,NULL,1628,40,342276,html-button-response,2,NULL,NULL,5a5a59afacc75b00017a4ee0,NULL,length,0,NULL
426,NULL,NULL,NULL,NULL,NULL,NULL,NULL,NULL,NULL,1087,41,343363,html-button-response,0,NULL,NULL,5a5a59afacc75b00017a4ee0,NULL,difficulty,0,NULL
427,NULL,NULL,NULL,NULL,NULL,NULL,NULL,NULL,NULL,1893,42,345258,html-slider-response,NULL,100,NULL,5a5a59afacc75b00017a4ee0,NULL,performance,0,NULL
428,17,#3077FF,1.9,1,1,1,2,NULL,NULL,NULL,43,362481,pong,NULL,NULL,NULL,5a5a59afacc75b00017a4ee0,mediumorchid,NULL,10,real-level
429,NULL,NULL,NULL,NULL,NULL,NULL,NULL,NULL,NULL,1612,44,364094,html-button-response,1,NULL,NULL,5a5a59afacc75b00017a4ee0,NULL,length,0,NULL
430,NULL,NULL,NULL,NULL,NULL,NULL,NULL,NULL,NULL,1003,45,365098,html-button-response,0,NULL,NULL,5a5a59afacc75b00017a4ee0,NULL,difficulty,0,NULL
431,NULL,NULL,NULL,NULL,NULL,NULL,NULL,NULL,NULL,3538,46,368636,html-slider-response,NULL,53,NULL,5a5a59afacc75b00017a4ee0,NULL,performance,0,NULL
432,15,#3077FF,0.5,1,1,0,3,NULL,NULL,NULL,47,385966,pong,NULL,NULL,NULL,5a5a59afacc75b00017a4ee0,mediumorchid,NULL,11,real-level
433,NULL,NULL,NULL,NULL,NULL,NULL,NULL,NULL,NULL,1366,48,387334,html-button-response,2,NULL,NULL,5a5a59afacc75b00017a4ee0,NULL,length,0,NULL
434,NULL,NULL,NULL,NULL,NULL,NULL,NULL,NULL,NULL,1235,49,388570,html-button-response,1,NULL,NULL,5a5a59afacc75b00017a4ee0,NULL,difficulty,0,NULL
435,NULL,NULL,NULL,NULL,NULL,NULL,NULL,NULL,NULL,1667,50,390238,html-slider-response,NULL,86,NULL,5a5a59afacc75b00017a4ee0,NULL,performance,0,NULL
436,13,#3077FF,0.5,1,0,1,2,NULL,NULL,NULL,51,405265,pong,NULL,NULL,NULL,5a5a59afacc75b00017a4ee0,mediumorchid,NULL,12,real-level
437,NULL,NULL,NULL,NULL,NULL,NULL,NULL,NULL,NULL,2398,52,407664,html-button-response,1,NULL,NULL,5a5a59afacc75b00017a4ee0,NULL,length,0,NULL
438,NULL,NULL,NULL,NULL,NULL,NULL,NULL,NULL,NULL,1089,53,408754,html-button-response,2,NULL,NULL,5a5a59afacc75b00017a4ee0,NULL,difficulty,0,NULL
439,NULL,NULL,NULL,NULL,NULL,NULL,NULL,NULL,NULL,1823,54,410577,html-slider-response,NULL,6,NULL,5a5a59afacc75b00017a4ee0,NULL,performance,0,NULL
440,15,#3077FF,1.2,1,0,1,2,NULL,NULL,NULL,55,425733,pong,NULL,NULL,NULL,5a5a59afacc75b00017a4ee0,mediumorchid,NULL,13,real-level
441,NULL,NULL,NULL,NULL,NULL,NULL,NULL,NULL,NULL,1056,56,426790,html-button-response,1,NULL,NULL,5a5a59afacc75b00017a4ee0,NULL,length,0,NULL
442,NULL,NULL,NULL,NULL,NULL,NULL,NULL,NULL,NULL,1583,57,428374,html-button-response,1,NULL,NULL,5a5a59afacc75b00017a4ee0,NULL,difficulty,0,NULL
443,NULL,NULL,NULL,NULL,NULL,NULL,NULL,NULL,NULL,1467,58,429841,html-slider-response,NULL,44,NULL,5a5a59afacc75b00017a4ee0,NULL,performance,0,NULL
444,17,#3077FF,1.2,1,0,0,3,NULL,NULL,NULL,59,448634,pong,NULL,NULL,NULL,5a5a59afacc75b00017a4ee0,mediumorchid,NULL,14,real-level
445,NULL,NULL,NULL,NULL,NULL,NULL,NULL,NULL,NULL,2339,60,450975,html-button-response,1,NULL,NULL,5a5a59afacc75b00017a4ee0,NULL,length,0,NULL
446,NULL,NULL,NULL,NULL,NULL,NULL,NULL,NULL,NULL,1352,61,452327,html-button-response,1,NULL,NULL,5a5a59afacc75b00017a4ee0,NULL,difficulty,0,NULL
447,NULL,NULL,NULL,NULL,NULL,NULL,NULL,NULL,NULL,1390,62,453717,html-slider-response,NULL,74,NULL,5a5a59afacc75b00017a4ee0,NULL,performance,0,NULL
448,17,#3077FF,1.9,1,1,0,3,NULL,NULL,NULL,63,470852,pong,NULL,NULL,NULL,5a5a59afacc75b00017a4ee0,mediumorchid,NULL,15,real-level
449,NULL,NULL,NULL,NULL,NULL,NULL,NULL,NULL,NULL,987,64,471839,html-button-response,2,NULL,NULL,5a5a59afacc75b00017a4ee0,NULL,length,0,NULL
450,NULL,NULL,NULL,NULL,NULL,NULL,NULL,NULL,NULL,1158,65,472997,html-button-response,0,NULL,NULL,5a5a59afacc75b00017a4ee0,NULL,difficulty,0,NULL
451,NULL,NULL,NULL,NULL,NULL,NULL,NULL,NULL,NULL,1382,66,474379,html-slider-response,NULL,79,NULL,5a5a59afacc75b00017a4ee0,NULL,performance,0,NULL
452,15,#3077FF,1.9,1,0,0,3,NULL,NULL,NULL,67,491735,pong,NULL,NULL,NULL,5a5a59afacc75b00017a4ee0,mediumorchid,NULL,16,real-level
453,NULL,NULL,NULL,NULL,NULL,NULL,NULL,NULL,NULL,1799,68,493535,html-button-response,1,NULL,NULL,5a5a59afacc75b00017a4ee0,NULL,length,0,NULL
454,NULL,NULL,NULL,NULL,NULL,NULL,NULL,NULL,NULL,895,69,494431,html-button-response,0,NULL,NULL,5a5a59afacc75b00017a4ee0,NULL,difficulty,0,NULL
455,NULL,NULL,NULL,NULL,NULL,NULL,NULL,NULL,NULL,1821,70,496253,html-slider-response,NULL,79,NULL,5a5a59afacc75b00017a4ee0,NULL,performance,0,NULL
456,15,#3077FF,1.2,1,1,2,3,NULL,NULL,NULL,71,511535,pong,NULL,NULL,NULL,5a5a59afacc75b00017a4ee0,mediumorchid,NULL,17,real-level
457,NULL,NULL,NULL,NULL,NULL,NULL,NULL,NULL,NULL,1482,72,513019,html-button-response,2,NULL,NULL,5a5a59afacc75b00017a4ee0,NULL,length,0,NULL
458,NULL,NULL,NULL,NULL,NULL,NULL,NULL,NULL,NULL,1235,73,514255,html-button-response,1,NULL,NULL,5a5a59afacc75b00017a4ee0,NULL,difficulty,0,NULL
459,NULL,NULL,NULL,NULL,NULL,NULL,NULL,NULL,NULL,1227,74,515483,html-slider-response,NULL,25,NULL,5a5a59afacc75b00017a4ee0,NULL,performance,0,NULL
460,13,#3077FF,1.9,1,1,1,3,NULL,NULL,NULL,75,533054,pong,NULL,NULL,NULL,5a5a59afacc75b00017a4ee0,mediumorchid,NULL,18,real-level
461,NULL,NULL,NULL,NULL,NULL,NULL,NULL,NULL,NULL,1212,76,534267,html-button-response,1,NULL,NULL,5a5a59afacc75b00017a4ee0,NULL,length,0,NULL
462,NULL,NULL,NULL,NULL,NULL,NULL,NULL,NULL,NULL,989,77,535257,html-button-response,0,NULL,NULL,5a5a59afacc75b00017a4ee0,NULL,difficulty,0,NULL
463,NULL,NULL,NULL,NULL,NULL,NULL,NULL,NULL,NULL,2185,78,537443,html-slider-response,NULL,83,NULL,5a5a59afacc75b00017a4ee0,NULL,performance,0,NULL
464,17,#3077FF,1.9,1,0,0,1,NULL,NULL,NULL,79,556405,pong,NULL,NULL,NULL,5a5a59afacc75b00017a4ee0,mediumorchid,NULL,19,real-level
465,NULL,NULL,NULL,NULL,NULL,NULL,NULL,NULL,NULL,1595,80,558001,html-button-response,2,NULL,NULL,5a5a59afacc75b00017a4ee0,NULL,length,0,NULL
466,NULL,NULL,NULL,NULL,NULL,NULL,NULL,NULL,NULL,1467,81,559469,html-button-response,1,NULL,NULL,5a5a59afacc75b00017a4ee0,NULL,difficulty,0,NULL
467,NULL,NULL,NULL,NULL,NULL,NULL,NULL,NULL,NULL,2779,82,562249,html-slider-response,NULL,50,NULL,5a5a59afacc75b00017a4ee0,NULL,performance,0,NULL
468,17,#3077FF,1.2,1,0,0,2,NULL,NULL,NULL,83,581039,pong,NULL,NULL,NULL,5a5a59afacc75b00017a4ee0,mediumorchid,NULL,20,real-level
469,NULL,NULL,NULL,NULL,NULL,NULL,NULL,NULL,NULL,1791,84,582831,html-button-response,1,NULL,NULL,5a5a59afacc75b00017a4ee0,NULL,length,0,NULL
470,NULL,NULL,NULL,NULL,NULL,NULL,NULL,NULL,NULL,1699,85,584531,html-button-response,1,NULL,NULL,5a5a59afacc75b00017a4ee0,NULL,difficulty,0,NULL
471,NULL,NULL,NULL,NULL,NULL,NULL,NULL,NULL,NULL,2687,86,587219,html-slider-response,NULL,61,NULL,5a5a59afacc75b00017a4ee0,NULL,performance,0,NULL
472,15,#3077FF,0.5,1,1,0,2,NULL,NULL,NULL,87,602356,pong,NULL,NULL,NULL,5a5a59afacc75b00017a4ee0,mediumorchid,NULL,21,real-level
473,NULL,NULL,NULL,NULL,NULL,NULL,NULL,NULL,NULL,1363,88,603721,html-button-response,0,NULL,NULL,5a5a59afacc75b00017a4ee0,NULL,length,0,NULL
474,NULL,NULL,NULL,NULL,NULL,NULL,NULL,NULL,NULL,2179,89,605901,html-button-response,2,NULL,NULL,5a5a59afacc75b00017a4ee0,NULL,difficulty,0,NULL
475,NULL,NULL,NULL,NULL,NULL,NULL,NULL,NULL,NULL,1243,90,607145,html-slider-response,NULL,82,NULL,5a5a59afacc75b00017a4ee0,NULL,performance,0,NULL
476,17,#3077FF,0.5,1,1,1,2,NULL,NULL,NULL,91,626340,pong,NULL,NULL,NULL,5a5a59afacc75b00017a4ee0,mediumorchid,NULL,22,real-level
477,NULL,NULL,NULL,NULL,NULL,NULL,NULL,NULL,NULL,1548,92,627889,html-button-response,1,NULL,NULL,5a5a59afacc75b00017a4ee0,NULL,length,0,NULL
478,NULL,NULL,NULL,NULL,NULL,NULL,NULL,NULL,NULL,1490,93,629379,html-button-response,2,NULL,NULL,5a5a59afacc75b00017a4ee0,NULL,difficulty,0,NULL
479,NULL,NULL,NULL,NULL,NULL,NULL,NULL,NULL,NULL,1314,94,630693,html-slider-response,NULL,73,NULL,5a5a59afacc75b00017a4ee0,NULL,performance,0,NULL
480,17,#3077FF,0.5,1,1,1,2,NULL,NULL,NULL,95,647925,pong,NULL,NULL,NULL,5a5a59afacc75b00017a4ee0,mediumorchid,NULL,23,real-level
481,NULL,NULL,NULL,NULL,NULL,NULL,NULL,NULL,NULL,1698,96,649623,html-button-response,1,NULL,NULL,5a5a59afacc75b00017a4ee0,NULL,length,0,NULL
482,NULL,NULL,NULL,NULL,NULL,NULL,NULL,NULL,NULL,1320,97,650943,html-button-response,2,NULL,NULL,5a5a59afacc75b00017a4ee0,NULL,difficulty,0,NULL
483,NULL,NULL,NULL,NULL,NULL,NULL,NULL,NULL,NULL,1778,98,652721,html-slider-response,NULL,56,NULL,5a5a59afacc75b00017a4ee0,NULL,performance,0,NULL
484,17,#3077FF,1.9,1,1,0,3,NULL,NULL,NULL,99,671625,pong,NULL,NULL,NULL,5a5a59afacc75b00017a4ee0,mediumorchid,NULL,24,real-level
485,NULL,NULL,NULL,NULL,NULL,NULL,NULL,NULL,NULL,826,100,672453,html-button-response,2,NULL,NULL,5a5a59afacc75b00017a4ee0,NULL,length,0,NULL
486,NULL,NULL,NULL,NULL,NULL,NULL,NULL,NULL,NULL,951,101,673404,html-button-response,0,NULL,NULL,5a5a59afacc75b00017a4ee0,NULL,difficulty,0,NULL
487,NULL,NULL,NULL,NULL,NULL,NULL,NULL,NULL,NULL,1360,102,674765,html-slider-response,NULL,98,NULL,5a5a59afacc75b00017a4ee0,NULL,performance,0,NULL
488,13,#3077FF,1.9,1,0,1,3,NULL,NULL,NULL,103,692325,pong,NULL,NULL,NULL,5a5a59afacc75b00017a4ee0,mediumorchid,NULL,25,real-level
489,NULL,NULL,NULL,NULL,NULL,NULL,NULL,NULL,NULL,1161,104,693487,html-button-response,2,NULL,NULL,5a5a59afacc75b00017a4ee0,NULL,length,0,NULL
490,NULL,NULL,NULL,NULL,NULL,NULL,NULL,NULL,NULL,1249,105,694737,html-button-response,0,NULL,NULL,5a5a59afacc75b00017a4ee0,NULL,difficulty,0,NULL
491,NULL,NULL,NULL,NULL,NULL,NULL,NULL,NULL,NULL,1723,106,696460,html-slider-response,NULL,65,NULL,5a5a59afacc75b00017a4ee0,NULL,performance,0,NULL
492,17,#3077FF,0.5,1,1,3,1,NULL,NULL,NULL,107,715892,pong,NULL,NULL,NULL,5a5a59afacc75b00017a4ee0,mediumorchid,NULL,26,real-level
493,NULL,NULL,NULL,NULL,NULL,NULL,NULL,NULL,NULL,1487,108,717381,html-button-response,1,NULL,NULL,5a5a59afacc75b00017a4ee0,NULL,length,0,NULL
494,NULL,NULL,NULL,NULL,NULL,NULL,NULL,NULL,NULL,1089,109,718470,html-button-response,2,NULL,NULL,5a5a59afacc75b00017a4ee0,NULL,difficulty,0,NULL
495,NULL,NULL,NULL,NULL,NULL,NULL,NULL,NULL,NULL,1691,110,720163,html-slider-response,NULL,6,NULL,5a5a59afacc75b00017a4ee0,NULL,performance,0,NULL
496,17,#3077FF,0.5,1,1,0,3,NULL,NULL,NULL,111,739061,pong,NULL,NULL,NULL,5a5a59afacc75b00017a4ee0,mediumorchid,NULL,27,real-level
497,NULL,NULL,NULL,NULL,NULL,NULL,NULL,NULL,NULL,1851,112,740912,html-button-response,1,NULL,NULL,5a5a59afacc75b00017a4ee0,NULL,length,0,NULL
498,NULL,NULL,NULL,NULL,NULL,NULL,NULL,NULL,NULL,1289,113,742202,html-button-response,2,NULL,NULL,5a5a59afacc75b00017a4ee0,NULL,difficulty,0,NULL
499,NULL,NULL,NULL,NULL,NULL,NULL,NULL,NULL,NULL,1405,114,743609,html-slider-response,NULL,27,NULL,5a5a59afacc75b00017a4ee0,NULL,performance,0,NULL
500,17,#3077FF,1.2,1,1,1,2,NULL,NULL,NULL,115,762778,pong,NULL,NULL,NULL,5a5a59afacc75b00017a4ee0,mediumorchid,NULL,28,real-level
501,NULL,NULL,NULL,NULL,NULL,NULL,NULL,NULL,NULL,1845,116,764625,html-button-response,1,NULL,NULL,5a5a59afacc75b00017a4ee0,NULL,length,0,NULL
502,NULL,NULL,NULL,NULL,NULL,NULL,NULL,NULL,NULL,1373,117,765999,html-button-response,1,NULL,NULL,5a5a59afacc75b00017a4ee0,NULL,difficulty,0,NULL
503,NULL,NULL,NULL,NULL,NULL,NULL,NULL,NULL,NULL,1969,118,767968,html-slider-response,NULL,55,NULL,5a5a59afacc75b00017a4ee0,NULL,performance,0,NULL
504,15,#3077FF,0.5,1,0,2,1,NULL,NULL,NULL,119,783196,pong,NULL,NULL,NULL,5a5a59afacc75b00017a4ee0,mediumorchid,NULL,29,real-level
505,NULL,NULL,NULL,NULL,NULL,NULL,NULL,NULL,NULL,1660,120,784857,html-button-response,0,NULL,NULL,5a5a59afacc75b00017a4ee0,NULL,length,0,NULL
506,NULL,NULL,NULL,NULL,NULL,NULL,NULL,NULL,NULL,725,121,785582,html-button-response,1,NULL,NULL,5a5a59afacc75b00017a4ee0,NULL,difficulty,0,NULL
507,NULL,NULL,NULL,NULL,NULL,NULL,NULL,NULL,NULL,2757,122,788341,html-slider-response,NULL,23,NULL,5a5a59afacc75b00017a4ee0,NULL,performance,0,NULL
508,17,#3077FF,1.9,1,1,0,1,NULL,NULL,NULL,123,807429,pong,NULL,NULL,NULL,5a5a59afacc75b00017a4ee0,mediumorchid,NULL,30,real-level
509,NULL,NULL,NULL,NULL,NULL,NULL,NULL,NULL,NULL,2124,124,809555,html-button-response,0,NULL,NULL,5a5a59afacc75b00017a4ee0,NULL,length,0,NULL
510,NULL,NULL,NULL,NULL,NULL,NULL,NULL,NULL,NULL,1160,125,810715,html-button-response,1,NULL,NULL,5a5a59afacc75b00017a4ee0,NULL,difficulty,0,NULL
511,NULL,NULL,NULL,NULL,NULL,NULL,NULL,NULL,NULL,1643,126,812359,html-slider-response,NULL,31,NULL,5a5a59afacc75b00017a4ee0,NULL,performance,0,NULL
512,NULL,NULL,NULL,NULL,NULL,NULL,NULL,NULL,NULL,78080,127,890439,survey-text,NULL,NULL,"{"Q0":"Something about whether the tradeoff between speed of the target and size of cursor has any impact on your judgments."}",5a5a59afacc75b00017a4ee0,NULL,hypothesis,NULL,NULL
513,NULL,NULL,NULL,NULL,NULL,NULL,NULL,NULL,NULL,15192,0,15196,html-keyboard-response,NULL,NULL,NULL,5b146e7bc85dc40001624518,NULL,NULL,NULL,NULL
514,13,#3077FF,1.2,1,0,2,2,1,0,NULL,1,106979,pong,NULL,NULL,NULL,5b146e7bc85dc40001624518,mediumorchid,NULL,NULL,NULL
515,NULL,NULL,NULL,NULL,NULL,NULL,NULL,NULL,NULL,18729,2,125710,html-keyboard-response,NULL,NULL,NULL,5b146e7bc85dc40001624518,NULL,NULL,NULL,NULL
516,13,#3077FF,1.9,1,0,0,3,NULL,1,NULL,3,152429,pong,NULL,NULL,NULL,5b146e7bc85dc40001624518,mediumorchid,NULL,NULL,NULL
517,NULL,NULL,NULL,NULL,NULL,NULL,NULL,NULL,NULL,7220,4,159650,html-keyboard-response,NULL,NULL,NULL,5b146e7bc85dc40001624518,NULL,NULL,NULL,NULL
518,13,#3077FF,1.2,1,0,0,1,NULL,1,NULL,5,180110,pong,NULL,NULL,NULL,5b146e7bc85dc40001624518,mediumorchid,NULL,NULL,NULL
519,NULL,NULL,NULL,NULL,NULL,NULL,NULL,NULL,NULL,4519,6,184630,html-keyboard-response,NULL,NULL,NULL,5b146e7bc85dc40001624518,NULL,NULL,NULL,NULL
520,15,#3077FF,0.5,1,1,2,1,NULL,NULL,NULL,7,200043,pong,NULL,NULL,NULL,5b146e7bc85dc40001624518,mediumorchid,NULL,1,real-level
521,NULL,NULL,NULL,NULL,NULL,NULL,NULL,NULL,NULL,5727,8,205774,html-button-response,1,NULL,NULL,5b146e7bc85dc40001624518,NULL,length,0,NULL
522,NULL,NULL,NULL,NULL,NULL,NULL,NULL,NULL,NULL,2932,9,208709,html-button-response,1,NULL,NULL,5b146e7bc85dc40001624518,NULL,difficulty,0,NULL
523,NULL,NULL,NULL,NULL,NULL,NULL,NULL,NULL,NULL,39286,10,247998,html-slider-response,NULL,38,NULL,5b146e7bc85dc40001624518,NULL,performance,0,NULL
524,17,#3077FF,1.9,1,1,1,1,NULL,NULL,NULL,11,265106,pong,NULL,NULL,NULL,5b146e7bc85dc40001624518,mediumorchid,NULL,2,real-level
525,NULL,NULL,NULL,NULL,NULL,NULL,NULL,NULL,NULL,2248,12,267355,html-button-response,1,NULL,NULL,5b146e7bc85dc40001624518,NULL,length,0,NULL
526,NULL,NULL,NULL,NULL,NULL,NULL,NULL,NULL,NULL,1644,13,269002,html-button-response,1,NULL,NULL,5b146e7bc85dc40001624518,NULL,difficulty,0,NULL
527,NULL,NULL,NULL,NULL,NULL,NULL,NULL,NULL,NULL,2932,14,271937,html-slider-response,NULL,81,NULL,5b146e7bc85dc40001624518,NULL,performance,0,NULL
528,13,#3077FF,1.2,1,0,0,2,NULL,NULL,NULL,15,289421,pong,NULL,NULL,NULL,5b146e7bc85dc40001624518,mediumorchid,NULL,3,real-level
529,NULL,NULL,NULL,NULL,NULL,NULL,NULL,NULL,NULL,1927,16,291351,html-button-response,0,NULL,NULL,5b146e7bc85dc40001624518,NULL,length,0,NULL
530,NULL,NULL,NULL,NULL,NULL,NULL,NULL,NULL,NULL,1534,17,292886,html-button-response,0,NULL,NULL,5b146e7bc85dc40001624518,NULL,difficulty,0,NULL
531,NULL,NULL,NULL,NULL,NULL,NULL,NULL,NULL,NULL,3134,18,296022,html-slider-response,NULL,78,NULL,5b146e7bc85dc40001624518,NULL,performance,0,NULL
532,17,#3077FF,1.2,1,1,2,1,NULL,NULL,NULL,19,313436,pong,NULL,NULL,NULL,5b146e7bc85dc40001624518,mediumorchid,NULL,4,real-level
533,NULL,NULL,NULL,NULL,NULL,NULL,NULL,NULL,NULL,2253,20,315691,html-button-response,1,NULL,NULL,5b146e7bc85dc40001624518,NULL,length,0,NULL
534,NULL,NULL,NULL,NULL,NULL,NULL,NULL,NULL,NULL,2038,21,317731,html-button-response,1,NULL,NULL,5b146e7bc85dc40001624518,NULL,difficulty,0,NULL
535,NULL,NULL,NULL,NULL,NULL,NULL,NULL,NULL,NULL,3117,22,320850,html-slider-response,NULL,95,NULL,5b146e7bc85dc40001624518,NULL,performance,0,NULL
536,15,#3077FF,1.9,1,1,0,1,NULL,NULL,NULL,23,338306,pong,NULL,NULL,NULL,5b146e7bc85dc40001624518,mediumorchid,NULL,5,real-level
537,NULL,NULL,NULL,NULL,NULL,NULL,NULL,NULL,NULL,3056,24,341365,html-button-response,1,NULL,NULL,5b146e7bc85dc40001624518,NULL,length,0,NULL
538,NULL,NULL,NULL,NULL,NULL,NULL,NULL,NULL,NULL,1286,25,342653,html-button-response,1,NULL,NULL,5b146e7bc85dc40001624518,NULL,difficulty,0,NULL
539,NULL,NULL,NULL,NULL,NULL,NULL,NULL,NULL,NULL,2645,26,345300,html-slider-response,NULL,95,NULL,5b146e7bc85dc40001624518,NULL,performance,0,NULL
540,17,#3077FF,1.2,1,1,0,1,NULL,NULL,NULL,27,362506,pong,NULL,NULL,NULL,5b146e7bc85dc40001624518,mediumorchid,NULL,6,real-level
541,NULL,NULL,NULL,NULL,NULL,NULL,NULL,NULL,NULL,1982,28,364490,html-button-response,0,NULL,NULL,5b146e7bc85dc40001624518,NULL,length,0,NULL
542,NULL,NULL,NULL,NULL,NULL,NULL,NULL,NULL,NULL,2781,29,367273,html-button-response,1,NULL,NULL,5b146e7bc85dc40001624518,NULL,difficulty,0,NULL
543,NULL,NULL,NULL,NULL,NULL,NULL,NULL,NULL,NULL,2486,30,369762,html-slider-response,NULL,91,NULL,5b146e7bc85dc40001624518,NULL,performance,0,NULL
544,17,#3077FF,1.9,1,0,0,1,NULL,NULL,NULL,31,386805,pong,NULL,NULL,NULL,5b146e7bc85dc40001624518,mediumorchid,NULL,7,real-level
545,NULL,NULL,NULL,NULL,NULL,NULL,NULL,NULL,NULL,1688,32,388495,html-button-response,1,NULL,NULL,5b146e7bc85dc40001624518,NULL,length,0,NULL
546,NULL,NULL,NULL,NULL,NULL,NULL,NULL,NULL,NULL,1046,33,389543,html-button-response,1,NULL,NULL,5b146e7bc85dc40001624518,NULL,difficulty,0,NULL
547,NULL,NULL,NULL,NULL,NULL,NULL,NULL,NULL,NULL,2221,34,391766,html-slider-response,NULL,97,NULL,5b146e7bc85dc40001624518,NULL,performance,0,NULL
548,17,#3077FF,1.2,1,2,3,1,NULL,NULL,NULL,35,409237,pong,NULL,NULL,NULL,5b146e7bc85dc40001624518,mediumorchid,NULL,8,real-level
549,NULL,NULL,NULL,NULL,NULL,NULL,NULL,NULL,NULL,2732,36,411972,html-button-response,1,NULL,NULL,5b146e7bc85dc40001624518,NULL,length,0,NULL
550,NULL,NULL,NULL,NULL,NULL,NULL,NULL,NULL,NULL,1686,37,413660,html-button-response,1,NULL,NULL,5b146e7bc85dc40001624518,NULL,difficulty,0,NULL
551,NULL,NULL,NULL,NULL,NULL,NULL,NULL,NULL,NULL,2541,38,416203,html-slider-response,NULL,99,NULL,5b146e7bc85dc40001624518,NULL,performance,0,NULL
552,15,#3077FF,0.5,1,0,3,1,NULL,NULL,NULL,39,431536,pong,NULL,NULL,NULL,5b146e7bc85dc40001624518,mediumorchid,NULL,9,real-level
553,NULL,NULL,NULL,NULL,NULL,NULL,NULL,NULL,NULL,2031,40,433569,html-button-response,1,NULL,NULL,5b146e7bc85dc40001624518,NULL,length,0,NULL
554,NULL,NULL,NULL,NULL,NULL,NULL,NULL,NULL,NULL,1622,41,435193,html-button-response,1,NULL,NULL,5b146e7bc85dc40001624518,NULL,difficulty,0,NULL
555,NULL,NULL,NULL,NULL,NULL,NULL,NULL,NULL,NULL,2053,42,437249,html-slider-response,NULL,4,NULL,5b146e7bc85dc40001624518,NULL,performance,0,NULL
556,15,#3077FF,1.9,1,0,1,2,NULL,NULL,NULL,43,452353,pong,NULL,NULL,NULL,5b146e7bc85dc40001624518,mediumorchid,NULL,10,real-level
557,NULL,NULL,NULL,NULL,NULL,NULL,NULL,NULL,NULL,1586,44,453943,html-button-response,1,NULL,NULL,5b146e7bc85dc40001624518,NULL,length,0,NULL
558,NULL,NULL,NULL,NULL,NULL,NULL,NULL,NULL,NULL,1799,45,455743,html-button-response,1,NULL,NULL,5b146e7bc85dc40001624518,NULL,difficulty,0,NULL
559,NULL,NULL,NULL,NULL,NULL,NULL,NULL,NULL,NULL,2532,46,458279,html-slider-response,NULL,82,NULL,5b146e7bc85dc40001624518,NULL,performance,0,NULL
560,17,#3077FF,0.5,1,0,1,1,NULL,NULL,NULL,47,477285,pong,NULL,NULL,NULL,5b146e7bc85dc40001624518,mediumorchid,NULL,11,real-level
561,NULL,NULL,NULL,NULL,NULL,NULL,NULL,NULL,NULL,2389,48,479675,html-button-response,2,NULL,NULL,5b146e7bc85dc40001624518,NULL,length,0,NULL
562,NULL,NULL,NULL,NULL,NULL,NULL,NULL,NULL,NULL,869,49,480546,html-button-response,2,NULL,NULL,5b146e7bc85dc40001624518,NULL,difficulty,0,NULL
563,NULL,NULL,NULL,NULL,NULL,NULL,NULL,NULL,NULL,2765,50,483314,html-slider-response,NULL,85,NULL,5b146e7bc85dc40001624518,NULL,performance,0,NULL
564,13,#3077FF,1.9,1,0,0,2,NULL,NULL,NULL,51,498151,pong,NULL,NULL,NULL,5b146e7bc85dc40001624518,mediumorchid,NULL,12,real-level
565,NULL,NULL,NULL,NULL,NULL,NULL,NULL,NULL,NULL,1800,52,499953,html-button-response,1,NULL,NULL,5b146e7bc85dc40001624518,NULL,length,0,NULL
566,NULL,NULL,NULL,NULL,NULL,NULL,NULL,NULL,NULL,1182,53,501137,html-button-response,1,NULL,NULL,5b146e7bc85dc40001624518,NULL,difficulty,0,NULL
567,NULL,NULL,NULL,NULL,NULL,NULL,NULL,NULL,NULL,2149,54,503288,html-slider-response,NULL,100,NULL,5b146e7bc85dc40001624518,NULL,performance,0,NULL
568,15,#3077FF,1.2,1,1,1,1,NULL,NULL,NULL,55,518651,pong,NULL,NULL,NULL,5b146e7bc85dc40001624518,mediumorchid,NULL,13,real-level
569,NULL,NULL,NULL,NULL,NULL,NULL,NULL,NULL,NULL,1818,56,520470,html-button-response,2,NULL,NULL,5b146e7bc85dc40001624518,NULL,length,0,NULL
570,NULL,NULL,NULL,NULL,NULL,NULL,NULL,NULL,NULL,1255,57,521727,html-button-response,1,NULL,NULL,5b146e7bc85dc40001624518,NULL,difficulty,0,NULL
571,NULL,NULL,NULL,NULL,NULL,NULL,NULL,NULL,NULL,2644,58,524374,html-slider-response,NULL,77,NULL,5b146e7bc85dc40001624518,NULL,performance,0,NULL
572,15,#3077FF,1.2,1,1,0,1,NULL,NULL,NULL,59,541983,pong,NULL,NULL,NULL,5b146e7bc85dc40001624518,mediumorchid,NULL,14,real-level
573,NULL,NULL,NULL,NULL,NULL,NULL,NULL,NULL,NULL,1779,60,543764,html-button-response,0,NULL,NULL,5b146e7bc85dc40001624518,NULL,length,0,NULL
574,NULL,NULL,NULL,NULL,NULL,NULL,NULL,NULL,NULL,2552,61,546318,html-button-response,1,NULL,NULL,5b146e7bc85dc40001624518,NULL,difficulty,0,NULL
575,NULL,NULL,NULL,NULL,NULL,NULL,NULL,NULL,NULL,2067,62,548387,html-slider-response,NULL,88,NULL,5b146e7bc85dc40001624518,NULL,performance,0,NULL
576,13,#3077FF,1.9,1,0,0,1,NULL,NULL,NULL,63,565665,pong,NULL,NULL,NULL,5b146e7bc85dc40001624518,mediumorchid,NULL,15,real-level
577,NULL,NULL,NULL,NULL,NULL,NULL,NULL,NULL,NULL,1534,64,567200,html-button-response,2,NULL,NULL,5b146e7bc85dc40001624518,NULL,length,0,NULL
578,NULL,NULL,NULL,NULL,NULL,NULL,NULL,NULL,NULL,1613,65,568815,html-button-response,0,NULL,NULL,5b146e7bc85dc40001624518,NULL,difficulty,0,NULL
579,NULL,NULL,NULL,NULL,NULL,NULL,NULL,NULL,NULL,2020,66,570837,html-slider-response,NULL,99,NULL,5b146e7bc85dc40001624518,NULL,performance,0,NULL
580,15,#3077FF,0.5,1,0,2,1,NULL,NULL,NULL,67,586136,pong,NULL,NULL,NULL,5b146e7bc85dc40001624518,mediumorchid,NULL,16,real-level
581,NULL,NULL,NULL,NULL,NULL,NULL,NULL,NULL,NULL,2064,68,588202,html-button-response,1,NULL,NULL,5b146e7bc85dc40001624518,NULL,length,0,NULL
582,NULL,NULL,NULL,NULL,NULL,NULL,NULL,NULL,NULL,17260,69,605465,html-button-response,2,NULL,NULL,5b146e7bc85dc40001624518,NULL,difficulty,0,NULL
583,NULL,NULL,NULL,NULL,NULL,NULL,NULL,NULL,NULL,2996,70,608464,html-slider-response,NULL,84,NULL,5b146e7bc85dc40001624518,NULL,performance,0,NULL
584,17,#3077FF,0.5,1,0,3,1,NULL,NULL,NULL,71,625769,pong,NULL,NULL,NULL,5b146e7bc85dc40001624518,mediumorchid,NULL,17,real-level
585,NULL,NULL,NULL,NULL,NULL,NULL,NULL,NULL,NULL,1945,72,627718,html-button-response,1,NULL,NULL,5b146e7bc85dc40001624518,NULL,length,0,NULL
586,NULL,NULL,NULL,NULL,NULL,NULL,NULL,NULL,NULL,1414,73,629134,html-button-response,2,NULL,NULL,5b146e7bc85dc40001624518,NULL,difficulty,0,NULL
587,NULL,NULL,NULL,NULL,NULL,NULL,NULL,NULL,NULL,2400,74,631536,html-slider-response,NULL,0,NULL,5b146e7bc85dc40001624518,NULL,performance,0,NULL
588,15,#3077FF,1.2,1,1,0,3,NULL,NULL,NULL,75,648914,pong,NULL,NULL,NULL,5b146e7bc85dc40001624518,mediumorchid,NULL,18,real-level
589,NULL,NULL,NULL,NULL,NULL,NULL,NULL,NULL,NULL,1665,76,650582,html-button-response,1,NULL,NULL,5b146e7bc85dc40001624518,NULL,length,0,NULL
590,NULL,NULL,NULL,NULL,NULL,NULL,NULL,NULL,NULL,1325,77,651909,html-button-response,1,NULL,NULL,5b146e7bc85dc40001624518,NULL,difficulty,0,NULL
591,NULL,NULL,NULL,NULL,NULL,NULL,NULL,NULL,NULL,2382,78,654293,html-slider-response,NULL,92,NULL,5b146e7bc85dc40001624518,NULL,performance,0,NULL
592,17,#3077FF,1.2,1,1,1,2,NULL,NULL,NULL,79,673497,pong,NULL,NULL,NULL,5b146e7bc85dc40001624518,mediumorchid,NULL,19,real-level
593,NULL,NULL,NULL,NULL,NULL,NULL,NULL,NULL,NULL,1943,80,675442,html-button-response,2,NULL,NULL,5b146e7bc85dc40001624518,NULL,length,0,NULL
594,NULL,NULL,NULL,NULL,NULL,NULL,NULL,NULL,NULL,1270,81,676714,html-button-response,1,NULL,NULL,5b146e7bc85dc40001624518,NULL,difficulty,0,NULL
595,NULL,NULL,NULL,NULL,NULL,NULL,NULL,NULL,NULL,1614,82,678330,html-slider-response,NULL,95,NULL,5b146e7bc85dc40001624518,NULL,performance,0,NULL
596,17,#3077FF,1.2,1,1,2,,NULL,NULL,NULL,83,697395,pong,NULL,NULL,NULL,5b146e7bc85dc40001624518,mediumorchid,NULL,20,real-level
597,NULL,NULL,NULL,NULL,NULL,NULL,NULL,NULL,NULL,3179,84,700576,html-button-response,1,NULL,NULL,5b146e7bc85dc40001624518,NULL,length,0,NULL
598,NULL,NULL,NULL,NULL,NULL,NULL,NULL,NULL,NULL,1614,85,702192,html-button-response,1,NULL,NULL,5b146e7bc85dc40001624518,NULL,difficulty,0,NULL
599,NULL,NULL,NULL,NULL,NULL,NULL,NULL,NULL,NULL,2340,86,704535,html-slider-response,NULL,8,NULL,5b146e7bc85dc40001624518,NULL,performance,0,NULL
600,13,#3077FF,1.2,1,0,1,1,NULL,NULL,NULL,87,719578,pong,NULL,NULL,NULL,5b146e7bc85dc40001624518,mediumorchid,NULL,21,real-level
601,NULL,NULL,NULL,NULL,NULL,NULL,NULL,NULL,NULL,2409,88,721989,html-button-response,1,NULL,NULL,5b146e7bc85dc40001624518,NULL,length,0,NULL
602,NULL,NULL,NULL,NULL,NULL,NULL,NULL,NULL,NULL,1190,89,723181,html-button-response,1,NULL,NULL,5b146e7bc85dc40001624518,NULL,difficulty,0,NULL
603,NULL,NULL,NULL,NULL,NULL,NULL,NULL,NULL,NULL,2206,90,725389,html-slider-response,NULL,88,NULL,5b146e7bc85dc40001624518,NULL,performance,0,NULL
604,15,#3077FF,1.9,1,1,0,1,NULL,NULL,NULL,91,742644,pong,NULL,NULL,NULL,5b146e7bc85dc40001624518,mediumorchid,NULL,22,real-level
605,NULL,NULL,NULL,NULL,NULL,NULL,NULL,NULL,NULL,1733,92,744378,html-button-response,1,NULL,NULL,5b146e7bc85dc40001624518,NULL,length,0,NULL
606,NULL,NULL,NULL,NULL,NULL,NULL,NULL,NULL,NULL,1574,93,745955,html-button-response,1,NULL,NULL,5b146e7bc85dc40001624518,NULL,difficulty,0,NULL
607,NULL,NULL,NULL,NULL,NULL,NULL,NULL,NULL,NULL,2229,94,748186,html-slider-response,NULL,99,NULL,5b146e7bc85dc40001624518,NULL,performance,0,NULL
608,15,#3077FF,0.5,1,1,2,,NULL,NULL,NULL,95,763593,pong,NULL,NULL,NULL,5b146e7bc85dc40001624518,mediumorchid,NULL,23,real-level
609,NULL,NULL,NULL,NULL,NULL,NULL,NULL,NULL,NULL,2550,96,766144,html-button-response,1,NULL,NULL,5b146e7bc85dc40001624518,NULL,length,0,NULL
610,NULL,NULL,NULL,NULL,NULL,NULL,NULL,NULL,NULL,878,97,767024,html-button-response,1,NULL,NULL,5b146e7bc85dc40001624518,NULL,difficulty,0,NULL
611,NULL,NULL,NULL,NULL,NULL,NULL,NULL,NULL,NULL,2773,98,769799,html-slider-response,NULL,2,NULL,5b146e7bc85dc40001624518,NULL,performance,0,NULL
612,17,#3077FF,1.9,1,0,0,1,NULL,NULL,NULL,99,786976,pong,NULL,NULL,NULL,5b146e7bc85dc40001624518,mediumorchid,NULL,24,real-level
613,NULL,NULL,NULL,NULL,NULL,NULL,NULL,NULL,NULL,1443,100,788421,html-button-response,2,NULL,NULL,5b146e7bc85dc40001624518,NULL,length,0,NULL
614,NULL,NULL,NULL,NULL,NULL,NULL,NULL,NULL,NULL,1287,101,789709,html-button-response,1,NULL,NULL,5b146e7bc85dc40001624518,NULL,difficulty,0,NULL
615,NULL,NULL,NULL,NULL,NULL,NULL,NULL,NULL,NULL,2109,102,791820,html-slider-response,NULL,100,NULL,5b146e7bc85dc40001624518,NULL,performance,0,NULL
616,15,#3077FF,0.5,1,1,3,1,NULL,NULL,NULL,103,807291,pong,NULL,NULL,NULL,5b146e7bc85dc40001624518,mediumorchid,NULL,25,real-level
617,NULL,NULL,NULL,NULL,NULL,NULL,NULL,NULL,NULL,1638,104,808931,html-button-response,1,NULL,NULL,5b146e7bc85dc40001624518,NULL,length,0,NULL
618,NULL,NULL,NULL,NULL,NULL,NULL,NULL,NULL,NULL,1325,105,810257,html-button-response,1,NULL,NULL,5b146e7bc85dc40001624518,NULL,difficulty,0,NULL
619,NULL,NULL,NULL,NULL,NULL,NULL,NULL,NULL,NULL,2078,106,812337,html-slider-response,NULL,2,NULL,5b146e7bc85dc40001624518,NULL,performance,0,NULL
620,17,#3077FF,1.9,1,0,0,1,NULL,NULL,NULL,107,831341,pong,NULL,NULL,NULL,5b146e7bc85dc40001624518,mediumorchid,NULL,26,real-level
621,NULL,NULL,NULL,NULL,NULL,NULL,NULL,NULL,NULL,1744,108,833087,html-button-response,2,NULL,NULL,5b146e7bc85dc40001624518,NULL,length,0,NULL
622,NULL,NULL,NULL,NULL,NULL,NULL,NULL,NULL,NULL,2030,109,835119,html-button-response,1,NULL,NULL,5b146e7bc85dc40001624518,NULL,difficulty,0,NULL
623,NULL,NULL,NULL,NULL,NULL,NULL,NULL,NULL,NULL,2190,110,837311,html-slider-response,NULL,100,NULL,5b146e7bc85dc40001624518,NULL,performance,0,NULL
624,13,#3077FF,1.9,1,0,1,3,NULL,NULL,NULL,111,855024,pong,NULL,NULL,NULL,5b146e7bc85dc40001624518,mediumorchid,NULL,27,real-level
625,NULL,NULL,NULL,NULL,NULL,NULL,NULL,NULL,NULL,2082,112,857108,html-button-response,2,NULL,NULL,5b146e7bc85dc40001624518,NULL,length,0,NULL
626,NULL,NULL,NULL,NULL,NULL,NULL,NULL,NULL,NULL,1287,113,858398,html-button-response,1,NULL,NULL,5b146e7bc85dc40001624518,NULL,difficulty,0,NULL
627,NULL,NULL,NULL,NULL,NULL,NULL,NULL,NULL,NULL,3274,114,861675,html-slider-response,NULL,65,NULL,5b146e7bc85dc40001624518,NULL,performance,0,NULL
628,15,#3077FF,0.5,1,0,1,1,NULL,NULL,NULL,115,876790,pong,NULL,NULL,NULL,5b146e7bc85dc40001624518,mediumorchid,NULL,28,real-level
629,NULL,NULL,NULL,NULL,NULL,NULL,NULL,NULL,NULL,1835,116,878627,html-button-response,1,NULL,NULL,5b146e7bc85dc40001624518,NULL,length,0,NULL
630,NULL,NULL,NULL,NULL,NULL,NULL,NULL,NULL,NULL,1309,117,879938,html-button-response,1,NULL,NULL,5b146e7bc85dc40001624518,NULL,difficulty,0,NULL
631,NULL,NULL,NULL,NULL,NULL,NULL,NULL,NULL,NULL,2310,118,882250,html-slider-response,NULL,100,NULL,5b146e7bc85dc40001624518,NULL,performance,0,NULL
632,17,#3077FF,0.5,1,1,0,1,NULL,NULL,NULL,119,901456,pong,NULL,NULL,NULL,5b146e7bc85dc40001624518,mediumorchid,NULL,29,real-level
633,NULL,NULL,NULL,NULL,NULL,NULL,NULL,NULL,NULL,1957,120,903415,html-button-response,2,NULL,NULL,5b146e7bc85dc40001624518,NULL,length,0,NULL
634,NULL,NULL,NULL,NULL,NULL,NULL,NULL,NULL,NULL,669,121,904087,html-button-response,2,NULL,NULL,5b146e7bc85dc40001624518,NULL,difficulty,0,NULL
635,NULL,NULL,NULL,NULL,NULL,NULL,NULL,NULL,NULL,2741,122,906831,html-slider-response,NULL,100,NULL,5b146e7bc85dc40001624518,NULL,performance,0,NULL
636,15,#3077FF,0.5,1,1,3,1,NULL,NULL,NULL,123,924605,pong,NULL,NULL,NULL,5b146e7bc85dc40001624518,mediumorchid,NULL,30,real-level
637,NULL,NULL,NULL,NULL,NULL,NULL,NULL,NULL,NULL,2373,124,926980,html-button-response,1,NULL,NULL,5b146e7bc85dc40001624518,NULL,length,0,NULL
638,NULL,NULL,NULL,NULL,NULL,NULL,NULL,NULL,NULL,1381,125,928363,html-button-response,2,NULL,NULL,5b146e7bc85dc40001624518,NULL,difficulty,0,NULL
639,NULL,NULL,NULL,NULL,NULL,NULL,NULL,NULL,NULL,2286,126,930651,html-slider-response,NULL,1,NULL,5b146e7bc85dc40001624518,NULL,performance,0,NULL
640,NULL,NULL,NULL,NULL,NULL,NULL,NULL,NULL,NULL,43779,127,974435,survey-text,NULL,NULL,"{"Q0":"to grade multitask maybe or perception "}",5b146e7bc85dc40001624518,NULL,hypothesis,NULL,NULL
641,NULL,NULL,NULL,NULL,NULL,NULL,NULL,NULL,NULL,13717,0,13722,html-keyboard-response,NULL,NULL,NULL,5beba23494bff800011dbf9f,NULL,NULL,NULL,NULL
642,13,#3077FF,1.2,1,2,1,1,1,0,NULL,1,79179,pong,NULL,NULL,NULL,5beba23494bff800011dbf9f,mediumorchid,NULL,NULL,NULL
643,NULL,NULL,NULL,NULL,NULL,NULL,NULL,NULL,NULL,9176,2,88357,html-keyboard-response,NULL,NULL,NULL,5beba23494bff800011dbf9f,NULL,NULL,NULL,NULL
644,13,#3077FF,0.5,1,0,2,,NULL,1,NULL,3,107214,pong,NULL,NULL,NULL,5beba23494bff800011dbf9f,mediumorchid,NULL,NULL,NULL
645,NULL,NULL,NULL,NULL,NULL,NULL,NULL,NULL,NULL,5425,4,112643,html-keyboard-response,NULL,NULL,NULL,5beba23494bff800011dbf9f,NULL,NULL,NULL,NULL
646,13,#3077FF,1.9,1,1,0,3,NULL,1,NULL,5,135050,pong,NULL,NULL,NULL,5beba23494bff800011dbf9f,mediumorchid,NULL,NULL,NULL
647,NULL,NULL,NULL,NULL,NULL,NULL,NULL,NULL,NULL,4417,6,139469,html-keyboard-response,NULL,NULL,NULL,5beba23494bff800011dbf9f,NULL,NULL,NULL,NULL
648,17,#3077FF,0.5,1,0,1,2,NULL,NULL,NULL,7,158485,pong,NULL,NULL,NULL,5beba23494bff800011dbf9f,mediumorchid,NULL,1,real-level
649,NULL,NULL,NULL,NULL,NULL,NULL,NULL,NULL,NULL,7975,8,166465,html-button-response,1,NULL,NULL,5beba23494bff800011dbf9f,NULL,length,0,NULL
650,NULL,NULL,NULL,NULL,NULL,NULL,NULL,NULL,NULL,6398,9,172865,html-button-response,2,NULL,NULL,5beba23494bff800011dbf9f,NULL,difficulty,0,NULL
651,NULL,NULL,NULL,NULL,NULL,NULL,NULL,NULL,NULL,11098,10,183968,html-slider-response,NULL,44,NULL,5beba23494bff800011dbf9f,NULL,performance,0,NULL
652,17,#3077FF,1.9,1,1,0,2,NULL,NULL,NULL,11,202987,pong,NULL,NULL,NULL,5beba23494bff800011dbf9f,mediumorchid,NULL,2,real-level
653,NULL,NULL,NULL,NULL,NULL,NULL,NULL,NULL,NULL,2900,12,205889,html-button-response,1,NULL,NULL,5beba23494bff800011dbf9f,NULL,length,0,NULL
654,NULL,NULL,NULL,NULL,NULL,NULL,NULL,NULL,NULL,4752,13,210643,html-button-response,0,NULL,NULL,5beba23494bff800011dbf9f,NULL,difficulty,0,NULL
655,NULL,NULL,NULL,NULL,NULL,NULL,NULL,NULL,NULL,4246,14,214891,html-slider-response,NULL,62,NULL,5beba23494bff800011dbf9f,NULL,performance,0,NULL
656,15,#3077FF,0.5,1,0,1,1,NULL,NULL,NULL,15,229972,pong,NULL,NULL,NULL,5beba23494bff800011dbf9f,mediumorchid,NULL,3,real-level
657,NULL,NULL,NULL,NULL,NULL,NULL,NULL,NULL,NULL,8418,16,238393,html-button-response,1,NULL,NULL,5beba23494bff800011dbf9f,NULL,length,0,NULL
658,NULL,NULL,NULL,NULL,NULL,NULL,NULL,NULL,NULL,1220,17,239615,html-button-response,1,NULL,NULL,5beba23494bff800011dbf9f,NULL,difficulty,0,NULL
659,NULL,NULL,NULL,NULL,NULL,NULL,NULL,NULL,NULL,4623,18,244242,html-slider-response,NULL,59,NULL,5beba23494bff800011dbf9f,NULL,performance,0,NULL
660,15,#3077FF,1.9,1,1,1,2,NULL,NULL,NULL,19,261591,pong,NULL,NULL,NULL,5beba23494bff800011dbf9f,mediumorchid,NULL,4,real-level
661,NULL,NULL,NULL,NULL,NULL,NULL,NULL,NULL,NULL,5193,20,266787,html-button-response,1,NULL,NULL,5beba23494bff800011dbf9f,NULL,length,0,NULL
662,NULL,NULL,NULL,NULL,NULL,NULL,NULL,NULL,NULL,2186,21,268975,html-button-response,1,NULL,NULL,5beba23494bff800011dbf9f,NULL,difficulty,0,NULL
663,NULL,NULL,NULL,NULL,NULL,NULL,NULL,NULL,NULL,2698,22,271678,html-slider-response,NULL,70,NULL,5beba23494bff800011dbf9f,NULL,performance,0,NULL
664,15,#3077FF,1.9,1,0,0,,NULL,NULL,NULL,23,286975,pong,NULL,NULL,NULL,5beba23494bff800011dbf9f,mediumorchid,NULL,5,real-level
665,NULL,NULL,NULL,NULL,NULL,NULL,NULL,NULL,NULL,4270,24,291248,html-button-response,0,NULL,NULL,5beba23494bff800011dbf9f,NULL,length,0,NULL
666,NULL,NULL,NULL,NULL,NULL,NULL,NULL,NULL,NULL,1888,25,293138,html-button-response,0,NULL,NULL,5beba23494bff800011dbf9f,NULL,difficulty,0,NULL
667,NULL,NULL,NULL,NULL,NULL,NULL,NULL,NULL,NULL,5773,26,298913,html-slider-response,NULL,62,NULL,5beba23494bff800011dbf9f,NULL,performance,0,NULL
668,15,#3077FF,1.2,1,1,0,3,NULL,NULL,NULL,27,314310,pong,NULL,NULL,NULL,5beba23494bff800011dbf9f,mediumorchid,NULL,6,real-level
669,NULL,NULL,NULL,NULL,NULL,NULL,NULL,NULL,NULL,2759,28,317072,html-button-response,1,NULL,NULL,5beba23494bff800011dbf9f,NULL,length,0,NULL
670,NULL,NULL,NULL,NULL,NULL,NULL,NULL,NULL,NULL,1178,29,318253,html-button-response,1,NULL,NULL,5beba23494bff800011dbf9f,NULL,difficulty,0,NULL
671,NULL,NULL,NULL,NULL,NULL,NULL,NULL,NULL,NULL,2974,30,321229,html-slider-response,NULL,74,NULL,5beba23494bff800011dbf9f,NULL,performance,0,NULL
672,15,#3077FF,1.9,1,1,1,,NULL,NULL,NULL,31,336579,pong,NULL,NULL,NULL,5beba23494bff800011dbf9f,mediumorchid,NULL,7,real-level
673,NULL,NULL,NULL,NULL,NULL,NULL,NULL,NULL,NULL,3514,32,340095,html-button-response,0,NULL,NULL,5beba23494bff800011dbf9f,NULL,length,0,NULL
674,NULL,NULL,NULL,NULL,NULL,NULL,NULL,NULL,NULL,892,33,340990,html-button-response,1,NULL,NULL,5beba23494bff800011dbf9f,NULL,difficulty,0,NULL
675,NULL,NULL,NULL,NULL,NULL,NULL,NULL,NULL,NULL,4488,34,345481,html-slider-response,NULL,47,NULL,5beba23494bff800011dbf9f,NULL,performance,0,NULL
676,13,#3077FF,1.9,1,0,0,3,NULL,NULL,NULL,35,362879,pong,NULL,NULL,NULL,5beba23494bff800011dbf9f,mediumorchid,NULL,8,real-level
677,NULL,NULL,NULL,NULL,NULL,NULL,NULL,NULL,NULL,3152,36,366033,html-button-response,0,NULL,NULL,5beba23494bff800011dbf9f,NULL,length,0,NULL
678,NULL,NULL,NULL,NULL,NULL,NULL,NULL,NULL,NULL,1522,37,367558,html-button-response,1,NULL,NULL,5beba23494bff800011dbf9f,NULL,difficulty,0,NULL
679,NULL,NULL,NULL,NULL,NULL,NULL,NULL,NULL,NULL,3775,38,371335,html-slider-response,NULL,50,NULL,5beba23494bff800011dbf9f,NULL,performance,0,NULL
680,13,#3077FF,0.5,1,0,0,2,NULL,NULL,NULL,39,388581,pong,NULL,NULL,NULL,5beba23494bff800011dbf9f,mediumorchid,NULL,9,real-level
681,NULL,NULL,NULL,NULL,NULL,NULL,NULL,NULL,NULL,2444,40,391027,html-button-response,1,NULL,NULL,5beba23494bff800011dbf9f,NULL,length,0,NULL
682,NULL,NULL,NULL,NULL,NULL,NULL,NULL,NULL,NULL,2175,41,393204,html-button-response,2,NULL,NULL,5beba23494bff800011dbf9f,NULL,difficulty,0,NULL
683,NULL,NULL,NULL,NULL,NULL,NULL,NULL,NULL,NULL,5643,42,398850,html-slider-response,NULL,58,NULL,5beba23494bff800011dbf9f,NULL,performance,0,NULL
684,17,#3077FF,0.5,1,0,0,1,NULL,NULL,NULL,43,416117,pong,NULL,NULL,NULL,5beba23494bff800011dbf9f,mediumorchid,NULL,10,real-level
685,NULL,NULL,NULL,NULL,NULL,NULL,NULL,NULL,NULL,3000,44,419120,html-button-response,0,NULL,NULL,5beba23494bff800011dbf9f,NULL,length,0,NULL
686,NULL,NULL,NULL,NULL,NULL,NULL,NULL,NULL,NULL,1226,45,420349,html-button-response,2,NULL,NULL,5beba23494bff800011dbf9f,NULL,difficulty,0,NULL
687,NULL,NULL,NULL,NULL,NULL,NULL,NULL,NULL,NULL,3879,46,424232,html-slider-response,NULL,54,NULL,5beba23494bff800011dbf9f,NULL,performance,0,NULL
688,15,#3077FF,1.9,1,1,1,3,NULL,NULL,NULL,47,441884,pong,NULL,NULL,NULL,5beba23494bff800011dbf9f,mediumorchid,NULL,11,real-level
689,NULL,NULL,NULL,NULL,NULL,NULL,NULL,NULL,NULL,2113,48,444001,html-button-response,1,NULL,NULL,5beba23494bff800011dbf9f,NULL,length,0,NULL
690,NULL,NULL,NULL,NULL,NULL,NULL,NULL,NULL,NULL,1939,49,445941,html-button-response,1,NULL,NULL,5beba23494bff800011dbf9f,NULL,difficulty,0,NULL
691,NULL,NULL,NULL,NULL,NULL,NULL,NULL,NULL,NULL,3433,50,449376,html-slider-response,NULL,44,NULL,5beba23494bff800011dbf9f,NULL,performance,0,NULL
692,15,#3077FF,0.5,1,0,1,1,NULL,NULL,NULL,51,466886,pong,NULL,NULL,NULL,5beba23494bff800011dbf9f,mediumorchid,NULL,12,real-level
693,NULL,NULL,NULL,NULL,NULL,NULL,NULL,NULL,NULL,2984,52,469873,html-button-response,1,NULL,NULL,5beba23494bff800011dbf9f,NULL,length,0,NULL
694,NULL,NULL,NULL,NULL,NULL,NULL,NULL,NULL,NULL,2421,53,472297,html-button-response,1,NULL,NULL,5beba23494bff800011dbf9f,NULL,difficulty,0,NULL
695,NULL,NULL,NULL,NULL,NULL,NULL,NULL,NULL,NULL,2995,54,475294,html-slider-response,NULL,39,NULL,5beba23494bff800011dbf9f,NULL,performance,0,NULL
696,15,#3077FF,1.2,1,0,0,3,NULL,NULL,NULL,55,492604,pong,NULL,NULL,NULL,5beba23494bff800011dbf9f,mediumorchid,NULL,13,real-level
697,NULL,NULL,NULL,NULL,NULL,NULL,NULL,NULL,NULL,2477,56,495084,html-button-response,1,NULL,NULL,5beba23494bff800011dbf9f,NULL,length,0,NULL
698,NULL,NULL,NULL,NULL,NULL,NULL,NULL,NULL,NULL,1341,57,496427,html-button-response,1,NULL,NULL,5beba23494bff800011dbf9f,NULL,difficulty,0,NULL
699,NULL,NULL,NULL,NULL,NULL,NULL,NULL,NULL,NULL,5927,58,502356,html-slider-response,NULL,51,NULL,5beba23494bff800011dbf9f,NULL,performance,0,NULL
700,15,#3077FF,0.5,1,1,0,,NULL,NULL,NULL,59,517639,pong,NULL,NULL,NULL,5beba23494bff800011dbf9f,mediumorchid,NULL,14,real-level
701,NULL,NULL,NULL,NULL,NULL,NULL,NULL,NULL,NULL,1937,60,519579,html-button-response,1,NULL,NULL,5beba23494bff800011dbf9f,NULL,length,0,NULL
702,NULL,NULL,NULL,NULL,NULL,NULL,NULL,NULL,NULL,1297,61,520878,html-button-response,2,NULL,NULL,5beba23494bff800011dbf9f,NULL,difficulty,0,NULL
703,NULL,NULL,NULL,NULL,NULL,NULL,NULL,NULL,NULL,2778,62,523659,html-slider-response,NULL,55,NULL,5beba23494bff800011dbf9f,NULL,performance,0,NULL
704,17,#3077FF,1.2,1,0,0,2,NULL,NULL,NULL,63,540641,pong,NULL,NULL,NULL,5beba23494bff800011dbf9f,mediumorchid,NULL,15,real-level
705,NULL,NULL,NULL,NULL,NULL,NULL,NULL,NULL,NULL,4071,64,544714,html-button-response,0,NULL,NULL,5beba23494bff800011dbf9f,NULL,length,0,NULL
706,NULL,NULL,NULL,NULL,NULL,NULL,NULL,NULL,NULL,1687,65,546403,html-button-response,1,NULL,NULL,5beba23494bff800011dbf9f,NULL,difficulty,0,NULL
707,NULL,NULL,NULL,NULL,NULL,NULL,NULL,NULL,NULL,2951,66,549356,html-slider-response,NULL,54,NULL,5beba23494bff800011dbf9f,NULL,performance,0,NULL
708,17,#3077FF,1.2,1,1,1,3,NULL,NULL,NULL,67,566726,pong,NULL,NULL,NULL,5beba23494bff800011dbf9f,mediumorchid,NULL,16,real-level
709,NULL,NULL,NULL,NULL,NULL,NULL,NULL,NULL,NULL,3259,68,569987,html-button-response,1,NULL,NULL,5beba23494bff800011dbf9f,NULL,length,0,NULL
